"Time (s)","Acceleration x (m/s^2)","Acceleration y (m/s^2)","Acceleration z (m/s^2)"
0.000000000E0,-1.941697598E0,3.587711334E0,9.204508781E0
3.835361700E-2,-1.989581585E0,3.506308317E0,9.827000618E0
6.251113800E-2,-2.080561161E0,3.520673513E0,9.844957352E0
7.958064800E-2,-2.033874273E0,3.505111217E0,9.196128845E0
9.312561500E-2,-2.141613483E0,3.655946016E0,8.487444878E0
1.048881370E-1,-2.488772631E0,3.702632904E0,7.819462776E0
1.157685130E-1,-2.524685621E0,3.756502390E0,7.340622425E0
1.262139890E-1,-2.892195702E0,3.473986626E0,7.481880188E0
1.364450350E-1,-3.005920172E0,2.539050817E0,7.201758862E0
1.465612500E-1,-1.228225470E0,3.670311213E0,7.940370083E0
1.566197040E-1,-1.984793186E0,3.499125719E0,9.901221275E0
1.666511230E-1,-1.988384485E0,3.107673883E0,1.124317074E1
1.766703710E-1,-1.152808070E0,2.372653961E0,1.113902378E1
1.866755530E-1,-9.050082564E-1,2.055422068E0,9.986215591E0
1.966633750E-1,-1.300051570E0,1.975216389E0,9.173383713E0
2.066527860E-1,-1.246181965E0,2.504334927E0,9.127894402E0
2.166498950E-1,-1.987187386E0,3.136404276E0,9.534908295E0
2.266555840E-1,-2.197877169E0,3.435679436E0,1.023880386E1
2.366513900E-1,-1.731007814E0,2.756923199E0,1.075714779E1
2.466512550E-1,-1.611297727E0,1.619677424E0,1.060631371E1
2.566570530E-1,-2.454056740E-1,1.035492182E0,9.236829758E0
2.666623750E-1,1.067813993E0,1.060631394E0,8.553285599E0
2.766703240E-1,4.991910458E-1,9.900023937E-1,9.206902504E0
2.866637410E-1,-5.829881430E-1,1.575384736E0,9.892841339E0
2.967100260E-1,-1.234210968E0,2.584540844E0,9.818621635E0
3.073271300E-1,-6.392518282E-1,3.081337690E0,1.022204399E1
3.170118360E-1,3.675099611E-1,2.554613113E0,1.089361763E1
3.269444200E-1,9.062053561E-1,2.064998865E0,1.107557678E1
3.368002310E-1,1.163581967E0,2.495955229E0,1.146463490E1
3.467228100E-1,5.889736414E-1,2.889801502E0,1.172440529E1
3.566836760E-1,5.638344884E-1,3.156754971E0,1.032858658E1
3.666866090E-1,4.141969085E-1,2.998737574E0,7.771578789E0
3.766878830E-1,6.703764796E-1,2.806004286E0,6.991068840E0
3.866660200E-1,5.793967843E-1,2.816778183E0,7.193378925E0
3.966628770E-1,3.675099611E-1,2.770091295E0,7.564480305E0
4.066701330E-1,6.919242740E-1,2.711433411E0,8.529343605E0
4.166746260E-1,1.146822572E0,3.013102770E0,9.763554573E0
4.266796610E-1,1.124077678E0,3.264493942E0,1.042674828E1
4.366791400E-1,7.805097699E-1,3.094505787E0,1.022204399E1
4.466739370E-1,9.672574997E-1,2.766499996E0,9.805453300E0
4.566615670E-1,1.205480576E0,2.614468336E0,9.594763756E0
4.666560550E-1,9.301473498E-1,2.650381327E0,9.382876396E0
4.766634910E-1,3.435679376E-1,2.797624588E0,9.296685219E0
4.866822280E-1,3.016694188E-1,3.086126089E0,9.625887871E0
4.966950770E-1,4.537012279E-1,3.150769472E0,9.792284966E0
5.067038100E-1,5.913678408E-1,3.095702887E0,9.752780914E0
5.166868300E-1,4.716577232E-1,2.981978178E0,1.006642151E1
5.267049940E-1,1.795651205E-2,3.096899986E0,1.062786102E1
5.366901340E-1,-1.699883193E-1,3.039438963E0,1.055962658E1
5.467076270E-1,2.334346622E-1,2.881421804E0,8.884882927E0
5.566963350E-1,7.206547260E-1,2.760514498E0,8.091204643E0
5.666868430E-1,1.058237195E0,2.661155224E0,8.200140953E0
5.767053660E-1,1.109712481E0,2.315192938E0,8.401253700E0
5.867153580E-1,1.405396342E0,2.412158251E0,8.798690796E0
5.967235460E-1,1.041477680E0,2.965218782E0,9.257181168E0
6.066958330E-1,1.616086215E-1,3.217807055E0,1.011789608E1
6.167100150E-1,-4.896142483E-1,3.004723072E0,1.057758331E1
6.266900860E-1,-2.837128937E-1,3.077746391E0,9.878476143E0
6.366758140E-1,1.376665980E-1,2.598906040E0,8.142680168E0
6.467013900E-1,7.924807668E-1,2.224213362E0,7.249642849E0
6.567674470E-1,1.273715258E0,2.240972757E0,7.626729488E0
6.667416870E-1,1.288080573E0,2.205059767E0,8.890868187E0
6.767285380E-1,1.064222693E0,2.147598982E0,9.823410034E0
6.867260400E-1,7.242460251E-1,2.442085743E0,9.429563522E0
6.966983300E-1,4.513070285E-1,2.780865192E0,9.901221275E0
7.066808010E-1,2.657563984E-1,2.725798607E0,1.049019432E1
7.166745750E-1,2.789244950E-1,2.747346401E0,1.028070164E1
7.266701930E-1,3.962403834E-1,2.643198729E0,9.716867447E0
7.366911370E-1,7.410054207E-1,2.346317768E0,9.032125473E0
7.467074930E-1,1.192312479E0,2.196680069E0,8.441955566E0
7.567138640E-1,1.283292055E0,2.169146776E0,8.689755440E0
7.667074920E-1,1.023521185E0,2.219424963E0,9.206902504E0
7.767293820E-1,7.206547260E-1,2.489969730E0,9.664195061E0
7.867027310E-1,5.171475410E-1,2.655169725E0,1.010592556E1
7.967256560E-1,3.471592367E-1,2.638410330E0,1.040879154E1
8.067310030E-1,4.632780254E-1,2.652775526E0,1.042674828E1
8.167056570E-1,5.865794420E-1,2.761711597E0,1.048181534E1
8.266833300E-1,5.530605912E-1,2.774879694E0,1.030344677E1
8.367017630E-1,3.818751574E-1,2.772485495E0,9.959878922E0
8.466870950E-1,2.717418969E-1,2.712630510E0,9.221267700E0
8.567473380E-1,4.656722248E-1,2.474407434E0,8.754398346E0
8.667097670E-1,4.417302012E-1,2.296039343E0,8.675390244E0
8.767080390E-1,4.991910458E-1,2.434903145E0,9.096769333E0
8.867291750E-1,2.430114746E-1,2.555810213E0,9.643844604E0
8.967016470E-1,-6.105214357E-2,2.673126221E0,9.938331604E0
9.066813060E-1,-1.137245819E-1,2.653972626E0,1.000536919E1
9.166746930E-1,2.394201700E-3,2.634819031E0,1.007001209E1
9.266705210E-1,1.137245819E-1,2.432508945E0,1.031062984E1
9.366698580E-1,2.130839527E-1,2.262520552E0,1.021366405E1
9.466919500E-1,7.541735470E-2,2.282871246E0,9.868899345E0
9.566759960E-1,4.429273307E-2,2.263717651E0,9.390059471E0
9.666844810E-1,9.816227108E-2,2.226607561E0,9.241618156E0
9.766760310E-1,-1.029506698E-1,2.280477047E0,9.428366661E0
9.866892670E-1,-4.106055796E-1,2.415749550E0,9.609128952E0
9.968297510E-1,-5.446808934E-1,2.433706045E0,9.974244118E0
1.006771281E0,-2.394201756E-1,2.318784237E0,1.033457184E1
1.016716219E0,-1.304839998E-1,2.375048161E0,1.026154804E1
1.026688150E0,-2.609679997E-1,2.257732153E0,9.917980194E0
1.036702769E0,-1.209071875E-1,2.154781580E0,9.568427086E0
1.046720155E0,-6.823474914E-2,2.256535053E0,9.290699959E0
1.056693291E0,-3.232172132E-2,2.267308950E0,9.415198326E0
1.066681724E0,-7.541735470E-2,2.206256866E0,9.514557838E0
1.076703460E0,-8.020575345E-2,2.275688648E0,9.415198326E0
1.086676886E0,-1.651999205E-1,2.361880064E0,9.326612473E0
1.096671983E0,-2.466027737E-1,2.353500366E0,9.215282440E0
1.106669147E0,-2.765302956E-1,2.286462545E0,9.357737541E0
1.116678902E0,-1.640028208E-1,2.230198860E0,9.544485092E0
1.126681760E0,-2.861070931E-1,2.252943754E0,9.583989143E0
1.136665286E0,-3.938461840E-1,2.188300371E0,9.428366661E0
1.146665799E0,-2.873041928E-1,2.154781580E0,9.465476036E0
1.156678305E0,-4.177882075E-1,2.251746655E0,9.692925453E0
1.166667443E0,-4.405331016E-1,2.264914751E0,1.003409958E1
1.176654916E0,-3.974374831E-1,2.173935175E0,1.016578007E1
1.186665575E0,-4.393360019E-1,2.239775658E0,1.012867069E1
1.196659558E0,-3.711012602E-1,2.303221941E0,1.017296314E1
1.206669242E0,-2.286462635E-1,2.229001760E0,9.932345390E0
1.216657680E0,-2.094926536E-1,2.197877169E0,9.801861763E0
1.226666380E0,-1.448491961E-1,2.305616140E0,9.578003883E0
1.236674615E0,-1.592144072E-1,2.323572636E0,9.337387085E0
1.246665059E0,-8.858546615E-2,2.246958256E0,9.459490776E0
1.256683897E0,-6.224924326E-2,2.209848166E0,9.568427086E0
1.266717373E0,-1.508347094E-1,2.297236443E0,9.434351921E0
1.276724707E0,-1.592144072E-1,2.337938070E0,9.247604370E0
1.286701951E0,-1.161187813E-1,2.304419041E0,9.241618156E0
1.296711362E0,-6.943184882E-2,2.248155355E0,9.470264435E0
1.306859298E0,-1.975216419E-1,2.251746655E0,9.753977776E0
1.316771112E0,-2.693476975E-1,2.242169857E0,9.725247383E0
1.326719673E0,-1.795651317E-1,2.205059767E0,9.991003990E0
1.336705261E0,-1.065419763E-1,2.195482969E0,9.878476143E0
1.346682594E0,-2.298433632E-1,2.195482969E0,9.654618263E0
1.356669933E0,-2.753331959E-1,2.231395960E0,9.593565941E0
1.366683526E0,-3.280056417E-1,2.292448044E0,9.696516991E0
1.376703861E0,-3.758896589E-1,2.281674147E0,9.544485092E0
1.386676663E0,-2.681505978E-1,2.221819162E0,9.188945770E0
1.396701199E0,-1.508347094E-1,2.211045265E0,9.288305283E0
1.406698851E0,-1.771709323E-1,2.234987259E0,9.473855972E0
1.416683773E0,-2.286462635E-1,2.302024841E0,9.415198326E0
1.426668177E0,-3.076549172E-1,2.251746655E0,9.476250648E0
1.436662032E0,-3.459621370E-1,2.221819162E0,9.752780914E0
1.446672133E0,-3.639186621E-1,2.238578558E0,1.014423275E1
1.456667145E0,-3.591302633E-1,2.316390038E0,1.047822380E1
1.466670016E0,-2.633621991E-1,2.224213362E0,1.016218948E1
1.476685913E0,-1.975216419E-1,2.171540976E0,9.783905029E0
1.486673516E0,-1.999158412E-1,2.208651066E0,9.502586365E0
1.496669644E0,-1.903390288E-1,2.252943754E0,9.329007149E0
1.506659516E0,-2.059013397E-1,2.321178436E0,9.326612473E0
1.516659202E0,-2.789244950E-1,2.361880064E0,9.331400871E0
1.526678641E0,-3.196259141E-1,2.310404539E0,9.352949142E0
1.536674937E0,-1.999158412E-1,2.351106167E0,9.701305389E0
1.546678278E0,-3.136404157E-1,2.382230759E0,9.964667320E0
1.556667910E0,-3.411737382E-1,2.371456861E0,1.011789608E1
1.566697649E0,-1.568202078E-1,2.335543871E0,1.003409958E1
1.576703865E0,-1.376665980E-1,2.288856745E0,9.841365814E0
1.586685203E0,-1.113303825E-1,2.291250944E0,9.730035782E0
1.596703430E0,-1.699883193E-1,2.385822058E0,9.652224541E0
1.606706197E0,-2.035071403E-1,2.376245260E0,9.605537415E0
1.616712946E0,-3.208230138E-1,2.425326347E0,1.006522369E1
1.626694725E0,-2.908954918E-1,2.487575531E0,1.016578007E1
1.636676729E0,-3.435679376E-1,2.501940727E0,9.357737541E0
1.646675251E0,-3.339911401E-1,2.501940727E0,9.009381294E0
1.656697877E0,-1.687912196E-1,2.427720547E0,9.145850182E0
1.666694305E0,-5.267243832E-2,2.475604534E0,9.605537415E0
1.676684231E0,-1.771709323E-1,2.659958124E0,1.019810200E1
1.686708329E0,-2.549824715E-1,2.586935043E0,1.007001209E1
1.696718204E0,-1.879448295E-1,2.535459518E0,9.883264542E0
1.706715104E0,-9.457096457E-2,2.446874142E0,9.479841232E0
1.716695284E0,-9.576806799E-3,2.454056740E0,9.147047997E0
1.726704586E0,-7.422025502E-2,2.536656618E0,8.825027466E0
1.736692929E0,-2.705447972E-1,2.448071241E0,8.880094528E0
1.746704793E0,-2.609679997E-1,2.398990154E0,9.125499725E0
1.756684206E0,-2.801215947E-1,2.521094322E0,9.437943459E0
1.766689528E0,-2.741360962E-1,2.625242233E0,9.607931137E0
1.776687496E0,-7.900865376E-2,2.542642117E0,9.714473724E0
1.786723346E0,-5.985504389E-2,2.466027737E0,9.838972092E0
1.796727251E0,-1.496376097E-1,2.466027737E0,9.715670586E0
1.806719050E0,-1.927332431E-1,2.516305923E0,9.475052834E0
1.816733488E0,-1.987187415E-1,2.561795712E0,9.380482674E0
1.826707207E0,-1.580173075E-1,2.541445017E0,9.339780807E0
1.836793278E0,-4.070143029E-2,2.455253839E0,9.009381294E0
1.846769429E0,-9.097966552E-2,2.398990154E0,8.917203903E0
1.856740139E0,-1.412578970E-1,2.409764051E0,9.179368973E0
1.866699686E0,-1.687912196E-1,2.450465441E0,9.340977669E0
1.876706018E0,-1.927332431E-1,2.488772631E0,9.550470352E0
1.886708510E0,-4.309562966E-2,2.425326347E0,9.652224541E0
1.896725603E0,3.950432688E-2,2.416946650E0,9.595960617E0
1.906704861E0,-1.316810958E-2,2.485181332E0,9.572018623E0
1.916715259E0,-9.217676520E-2,2.529474020E0,9.536105156E0
1.926711785E0,-1.149216816E-1,2.504334927E0,9.388861656E0
1.936723932E0,-1.256955862E-1,2.521094322E0,9.285911560E0
1.946701333E0,-8.020575345E-2,2.517503023E0,9.397241592E0
1.956680918E0,-4.548983276E-2,2.432508945E0,9.659406662E0
1.966698980E0,6.943184882E-2,2.398990154E0,9.685743332E0
1.976683261E0,5.506663769E-2,2.464830637E0,9.339780807E0
1.986684555E0,-1.436521020E-2,2.440888643E0,9.677363396E0
1.996680183E0,-7.781155407E-2,2.507926226E0,9.944316864E0
2.006669285E0,-3.591302410E-2,2.619256735E0,1.005564690E1
2.016703144E0,8.379705995E-2,2.591723442E0,9.932345390E0
2.026713381E0,3.950432688E-2,2.616862535E0,9.652224541E0
2.036699403E0,-4.668693244E-2,2.656366825E0,9.423578262E0
2.046716491E0,4.668693244E-2,2.567781210E0,9.180566788E0
2.056696228E0,1.197100878E-1,2.548627615E0,9.406818390E0
2.066709904E0,-3.471592441E-2,2.549824715E0,9.719262123E0
2.076683626E0,-9.816227108E-2,2.559401512E0,9.926360130E0
2.086697757E0,-1.436521020E-2,2.547430515E0,1.009515190E1
2.096741053E0,6.584054977E-2,2.531868219E0,1.015380955E1
2.106701393E0,9.935937077E-2,2.523488522E0,9.962273598E0
2.116715102E0,8.619125932E-2,2.507926226E0,9.641449928E0
2.126695360E0,5.985504389E-2,2.485181332E0,9.649829865E0
2.136769104E0,3.471592441E-2,2.535459518E0,9.856928825E0
2.146730188E0,-3.471592441E-2,2.656366825E0,9.743204117E0
2.156704211E0,-6.703764945E-2,2.643198729E0,9.385271072E0
2.166710357E0,1.675941236E-2,2.545036316E0,9.271546364E0
2.176719372E0,-2.873042040E-2,2.521094322E0,9.282320023E0
2.186728841E0,-8.259996027E-2,2.574964046E0,9.385271072E0
2.196704672E0,-5.506663769E-2,2.570175409E0,9.289502144E0
2.206710972E0,5.626374111E-2,2.474407434E0,9.424775124E0
2.216722680E0,1.747767180E-1,2.359485865E0,9.655815125E0
2.226728745E0,1.017535701E-1,2.383427858E0,9.902418137E0
2.236725989E0,1.077390742E-2,2.497152328E0,9.876082420E0
2.246739265E0,-3.591302549E-3,2.461239338E0,9.683348656E0
2.256730057E0,7.422025502E-2,2.433706045E0,9.591172218E0
2.266734011E0,-2.513911761E-2,2.451662540E0,9.533711433E0
2.276704738E0,2.274491638E-2,2.534262419E0,9.586383820E0
2.286693063E0,5.506663769E-2,2.501940727E0,9.573215485E0
2.296690533E0,-6.105214357E-2,2.448071241E0,8.953117371E0
2.306678402E0,-8.978256583E-2,2.456450939E0,9.058462143E0
2.316693318E0,-1.436520964E-1,2.390610456E0,9.382876396E0
2.326700218E0,2.633621916E-2,2.268506050E0,9.821015358E0
2.336711764E0,1.412578970E-1,2.206256866E0,1.007240677E1
2.346718133E0,1.161187813E-1,2.313995838E0,1.004128170E1
2.356689145E0,2.298433632E-1,2.322375536E0,9.943120003E0
2.366684093E0,2.418143749E-1,2.218227863E0,9.793481827E0
2.376699317E0,2.681505978E-1,2.212242365E0,9.612719536E0
2.386684717E0,2.693476975E-1,2.278082848E0,9.591172218E0
2.396685687E0,2.035071403E-1,2.327163935E0,9.652224541E0
2.406678652E0,6.703764945E-2,2.357091665E0,9.532513618E0
2.416686212E0,-3.196259141E-1,2.475604534E0,9.066842079E0
2.426708953E0,-1.185129806E-1,2.546233416E0,9.021351814E0
2.436726305E0,1.077390742E-2,2.402581453E0,9.414001465E0
2.446697519E0,1.831564307E-1,2.309207439E0,9.709685326E0
2.456678049E0,2.262520641E-1,2.273294449E0,9.793481827E0
2.466683468E0,3.818751574E-1,2.239775658E0,9.819818497E0
2.476696351E0,3.914519846E-1,2.153584480E0,9.878476143E0
2.486707946E0,3.531447649E-1,2.224213362E0,9.910798073E0
2.496694167E0,2.597708702E-1,2.310404539E0,9.892841339E0
2.508529431E0,3.220201433E-1,2.339135170E0,9.993397713E0
2.518020717E0,3.220201433E-1,2.339135170E0,9.993397713E0
2.527349052E0,2.549824715E-1,2.420537949E0,9.894038200E0
2.537009393E0,2.130839527E-1,2.410961151E0,9.642647743E0
2.546849178E0,3.004723191E-1,2.364274263E0,9.429563522E0
2.556789706E0,2.525882721E-1,2.372653961E0,9.378087997E0
2.566731623E0,2.585737705E-1,2.404975653E0,9.402029991E0
2.576725390E0,2.358288616E-1,2.353500366E0,9.174580574E0
2.586702158E0,7.062894851E-2,2.199074268E0,9.042900085E0
2.596726753E0,1.999158412E-1,2.172738075E0,9.396044731E0
2.606711570E0,6.009446383E-1,2.342726469E0,1.002332497E1
2.616718690E0,4.692635238E-1,2.335543871E0,1.021366405E1
2.626690096E0,3.962403834E-1,2.220622063E0,9.787496567E0
2.636710107E0,5.027823448E-1,2.200271368E0,9.607931137E0
2.646689497E0,5.853823423E-1,2.240972757E0,9.619902611E0
2.656698384E0,4.405331016E-1,2.135627985E0,9.659406662E0
2.666685385E0,2.334346622E-1,2.100912094E0,9.588777542E0
2.676678040E0,3.459621370E-1,2.208651066E0,9.706093788E0
2.686674463E0,3.615244627E-1,2.313995838E0,9.904812813E0
2.696711367E0,4.333505034E-1,2.266111851E0,9.873687744E0
2.706717531E0,5.207388401E-1,2.145204782E0,9.872490883E0
2.716727747E0,5.758054852E-1,2.127248287E0,9.647436142E0
2.726693048E0,4.285621047E-1,2.129642487E0,9.326612473E0
2.736704083E0,4.345476031E-1,2.194285870E0,9.394847870E0
2.746716235E0,5.291185975E-1,2.202665567E0,9.588777542E0
2.756693888E0,5.781996846E-1,2.229001760E0,9.811438560E0
2.766704349E0,6.141127348E-1,2.272097349E0,9.883264542E0
2.776713753E0,6.248866320E-1,2.262520552E0,9.768342972E0
2.786718935E0,6.895300746E-1,2.294842243E0,9.485827446E0
2.796701392E0,6.009446383E-1,2.244564056E0,9.398438454E0
2.806684582E0,6.931213737E-1,2.145204782E0,9.543288231E0
2.816706158E0,7.541735172E-1,2.092532396E0,9.580398560E0
2.826686369E0,7.026981711E-1,2.121262789E0,9.599552155E0
2.836717282E0,6.260837317E-1,2.276885748E0,9.707290649E0
2.846696565E0,5.255272985E-1,2.389413357E0,9.786299706E0
2.856703149E0,4.548983276E-1,2.284068346E0,9.730035782E0
2.866720153E0,6.619967818E-1,2.272097349E0,9.618705750E0
2.876723212E0,7.888894677E-1,2.279279947E0,9.508571625E0
2.886721434E0,8.786720037E-1,2.233790159E0,9.381679535E0
2.896724045E0,6.967126727E-1,2.266111851E0,9.198522568E0
2.906720062E0,6.356605291E-1,2.321178436E0,9.165003777E0
2.916721571E0,6.081272364E-1,2.312798738E0,9.410409927E0
2.926718402E0,5.937620401E-1,2.291250944E0,9.637859344E0
2.936738702E0,5.458779931E-1,2.296039343E0,9.786299706E0
2.946736429E0,4.225766063E-1,2.272097349E0,9.953893661E0
2.956702177E0,4.932055473E-1,2.321178436E0,1.008198357E1
2.966713493E0,5.458779931E-1,2.313995838E0,9.915586472E0
2.976717863E0,7.098808289E-1,2.264914751E0,9.793481827E0
2.986718279E0,7.900865674E-1,2.211045265E0,9.734824181E0
2.996733794E0,7.134721279E-1,2.231395960E0,9.624691010E0
3.006707398E0,6.500257850E-1,2.279279947E0,9.411606789E0
3.016694335E0,6.236895323E-1,2.257732153E0,9.187748909E0
3.026684669E0,5.686228871E-1,2.232593060E0,9.174580574E0
3.036675162E0,4.082113802E-1,2.268506050E0,9.408015251E0
3.046673294E0,3.878606856E-1,2.298433542E0,9.593565941E0
3.056667590E0,3.351882398E-1,2.213439465E0,9.727641106E0
3.066699431E0,5.315127969E-1,2.189497471E0,9.810241699E0
3.076688543E0,6.248866320E-1,2.161964178E0,9.878476143E0
3.086705119E0,5.482721925E-1,2.126051188E0,9.797073364E0
3.096688849E0,6.069301367E-1,2.140416384E0,9.714473724E0
3.106680156E0,5.147533417E-1,2.116474390E0,9.631873131E0
3.116842367E0,3.890577853E-1,2.105700493E0,9.545681953E0
3.126752761E0,3.483563364E-1,2.038662672E0,9.446322441E0
3.136713882E0,4.896142483E-1,1.984793186E0,9.472659111E0
3.146718423E0,4.094084799E-1,2.090138197E0,9.642647743E0
3.156732193E0,3.196259141E-1,2.221819162E0,9.767146111E0
3.166707155E0,7.134721279E-1,1.948880196E0,1.028309631E1
3.176683982E0,6.607996821E-1,1.929726601E0,1.024000072E1
3.186674107E0,7.469909191E-1,2.062604666E0,9.674968719E0
3.196701266E0,7.613561153E-1,2.014720678E0,9.512163162E0
3.206730057E0,5.123591423E-1,2.069787264E0,9.611522675E0
3.216701029E0,4.884171486E-1,2.170343876E0,9.631873131E0
3.226706977E0,7.661445141E-1,1.975216389E0,9.604340553E0
3.236689720E0,8.032546639E-1,1.798045516E0,9.648633003E0
3.246682284E0,7.206547260E-1,1.799242616E0,9.498994827E0
3.256710355E0,8.894459605E-1,1.893813491E0,9.427168846E0
3.266724428E0,9.876081944E-1,1.898601890E0,9.430760384E0
3.276730234E0,7.553706169E-1,1.908178806E0,9.744400978E0
3.286697637E0,6.596025825E-1,2.002749681E0,9.707290649E0
3.296684993E0,5.374982953E-1,2.094926596E0,9.945513725E0
3.306704574E0,7.721300721E-1,2.059013367E0,9.850942612E0
3.316688442E0,9.337386489E-1,1.850717902E0,1.011550236E1
3.326676376E0,1.284489155E0,1.731007814E0,9.915586472E0
3.336698612E0,1.690306425E0,1.654393315E0,9.813833237E0
3.346684172E0,1.686715126E0,1.470039845E0,9.962273598E0
3.356699587E0,1.662773132E0,1.320402265E0,9.916783333E0
3.366687544E0,2.068590164E0,1.419761658E0,1.025915432E1
3.376674715E0,2.256535053E0,1.510741234E0,1.089122391E1
3.386694532E0,2.201468468E0,1.684320927E0,1.048301220E1
3.396703959E0,2.375048161E0,1.567005038E0,9.443928719E0
3.406711288E0,2.546233416E0,1.237802267E0,9.153033257E0
3.416722626E0,2.701856613E0,1.114500880E0,9.058462143E0
3.426717160E0,3.110068083E0,1.143231273E0,9.587580681E0
3.436693485E0,3.594893932E0,1.388636947E0,1.018852520E1
3.446706609E0,3.606864929E0,1.583764434E0,9.562441826E0
3.456714728E0,3.466804028E0,1.470039845E0,8.945934296E0
3.466700038E0,3.463212729E0,1.238999367E0,8.597578049E0
3.476710789E0,3.353079557E0,9.409212470E-1,8.614337921E0
3.486690857E0,3.688267708E0,1.059434295E0,8.675390244E0
3.496750622E0,3.979163170E0,1.284489155E0,8.795100212E0
3.506740081E0,4.074931145E0,1.412579060E0,8.980650902E0
3.516739580E0,3.943250179E0,1.493981838E0,8.819042206E0
3.526709945E0,3.869029999E0,1.556231141E0,8.427590370E0
3.536692896E0,3.851073503E0,1.507149935E0,8.321047783E0
3.546718680E0,4.210203648E0,1.370680451E0,8.999804497E0
3.556695687E0,3.993528366E0,1.465251446E0,8.965087891E0
3.566682498E0,3.564966440E0,1.618480325E0,8.723274231E0
3.576686038E0,3.391386747E0,1.685518026E0,8.616731644E0
3.586671962E0,3.614047527E0,1.541865945E0,8.757989883E0
3.596683905E0,3.949235678E0,1.345541358E0,9.103952408E0
3.606668338E0,4.699818134E0,1.027112484E0,9.525331497E0
3.616680978E0,4.583699226E0,1.098938584E0,9.336189270E0
3.626679201E0,4.552574635E0,1.144428372E0,9.379284859E0
3.636686967E0,4.205415249E0,1.401805043E0,9.022548676E0
3.646681830E0,4.128800869E0,1.486799240E0,8.160636902E0
3.656662185E0,4.132391930E0,1.453280449E0,8.063671112E0
3.666675401E0,4.226963043E0,1.098938584E0,8.558073997E0
3.676677163E0,3.980360270E0,8.726865053E-1,8.639476776E0
3.686684948E0,3.790021181E0,1.167173386E0,8.275558472E0
3.696681879E0,3.302801132E0,1.580173135E0,8.064867973E0
3.706680729E0,3.666719913E0,1.673547029E0,8.288725853E0
3.716705231E0,4.531026840E0,1.425747156E0,8.431180954E0
3.726694828E0,5.025429249E0,1.070208192E0,8.753201485E0
3.736678030E0,4.672284603E0,1.004367590E0,9.133879662E0
3.746661439E0,4.580107689E0,1.010353088E0,9.242815971E0
3.756653836E0,4.392162800E0,1.027112484E0,9.029731750E0
3.766676515E0,4.088099480E0,9.301473498E-1,8.474276543E0
3.776675854E0,4.290409565E0,7.194576263E-1,8.386888504E0
3.786677793E0,4.958391666E0,5.219359994E-1,8.506598473E0
3.796686243E0,5.615600109E0,6.416460276E-1,8.390480042E0
3.806684238E0,5.819107056E0,7.062895298E-1,8.070854187E0
3.816690120E0,6.003460884E0,8.068459630E-1,7.969100475E0
3.826682849E0,6.141127586E0,9.504981041E-1,8.301894188E0
3.836678521E0,6.119579315E0,9.062053561E-1,8.493430138E0
3.846674704E0,6.074089527E0,9.217676520E-1,8.348581314E0
3.856666622E0,5.688623428E0,8.882488012E-1,8.067262650E0
3.866657523E0,5.118803024E0,8.128314614E-1,7.890091896E0
3.876652474E0,4.996698856E0,7.110779285E-1,7.874529362E0
3.886653680E0,5.046977043E0,6.141127348E-1,7.902062893E0
3.896649245E0,5.367800236E0,5.985504389E-1,8.086416245E0
3.906646719E0,5.864596844E0,5.925649405E-1,8.192957878E0
3.916660187E0,6.542156219E0,7.350199223E-1,8.116343498E0
3.926883652E0,6.297947407E0,7.733271718E-1,7.760804653E0
3.936776807E0,6.156689644E0,6.835445762E-1,7.954735279E0
3.950931616E0,6.156689644E0,6.835445762E-1,7.954735279E0
3.959959886E0,5.999869347E0,5.973533392E-1,7.894880295E0
3.976675771E0,6.173449039E0,5.889736414E-1,7.785943985E0
3.986709425E0,6.397306919E0,5.291185975E-1,7.647080421E0
3.996668194E0,6.526593685E0,5.363011956E-1,7.987056732E0
4.006816617E0,6.373364925E0,6.643909812E-1,8.188169479E0
4.016652579E0,6.356605530E0,4.704606235E-1,8.067262650E0
4.026671156E0,6.331466198E0,3.663128614E-1,7.733271599E0
4.036652425E0,6.296750546E0,4.776432514E-1,7.151480675E0
4.046719771E0,6.269217014E0,7.074866295E-1,6.896498203E0
4.056665579E0,6.567295074E0,7.769184709E-1,7.253233910E0
4.066651194E0,6.737283707E0,7.469909191E-1,7.305906296E0
4.076712810E0,6.716932774E0,6.332663298E-1,7.167042732E0
4.086653810E0,6.728903770E0,6.033388376E-1,6.907271862E0
4.096642233E0,7.016208172E0,4.572925270E-1,7.261613846E0
4.106655617E0,7.224503517E0,3.902548850E-1,7.493851185E0
4.116644079E0,6.868964672E0,4.405331016E-1,7.244854450E0
4.126653425E0,6.509834290E0,4.309563041E-1,6.829460144E0
4.136678156E0,6.757634163E0,4.680664241E-1,6.829460144E0
4.146695156E0,7.001842976E0,4.261679053E-1,6.999448776E0
4.156678156E0,7.255628109E0,2.908954918E-1,7.240066051E0
4.166646271E0,7.369352818E0,3.639186621E-1,7.697358608E0
4.176771809E0,7.231686115E0,3.232172430E-1,7.552509308E0
4.186653809E0,7.129932880E0,3.902548850E-1,7.088034153E0
4.196654540E0,6.950367451E0,4.860229492E-1,6.579266071E0
4.206685617E0,6.987477779E0,6.560112834E-1,6.318298340E0
4.216701348E0,7.193378925E0,7.266402245E-1,6.211756229E0
4.226655348E0,7.235277653E0,5.075707436E-1,5.819107056E0
4.236665694E0,7.187393665E0,4.106055796E-1,5.448006153E0
4.246650656E0,7.453149796E0,5.063736439E-1,5.612008572E0
4.256650771E0,7.748833656E0,4.177882075E-1,6.604405403E0
4.266666848E0,8.185775757E0,4.429273307E-2,6.839036942E0
4.276666809E0,7.927201748E0,2.047042400E-1,6.907271862E0
4.286820079E0,7.839813232E0,4.201824069E-1,6.616376400E0
4.297322771E0,7.782352448E0,5.841852427E-1,6.279991150E0
4.306658002E0,7.647080421E0,4.644751251E-1,5.997475147E0
4.316657002E0,7.459135532E0,4.967968464E-1,5.570110321E0
4.326651848E0,7.398083210E0,6.548141837E-1,5.325901508E0
4.336647079E0,7.698555470E0,7.817068696E-1,5.383362293E0
4.346701694E0,7.933187485E0,7.374141216E-1,5.538985729E0
4.356696194E0,8.092401505E0,5.997475386E-1,5.653907299E0
4.366652771E0,8.329427719E0,3.998316824E-1,5.819107056E0
4.376728771E0,8.233659744E0,3.292027414E-1,5.576095581E0
4.386241367E0,8.062474251E0,5.063736439E-1,5.366602898E0
4.396652425E0,8.062474251E0,5.063736439E-1,5.366602898E0
4.406659040E0,8.458714485E0,5.793967843E-1,5.717353821E0
4.416659271E0,8.316259384E0,6.224924326E-1,5.955576897E0
4.426666271E0,8.016983986E0,6.272808313E-1,5.691017628E0
4.436694579E0,7.814674377E0,5.171475410E-1,5.534197330E0
4.446699309E0,7.772775650E0,5.985504389E-1,5.725733280E0
4.456678155E0,7.903259754E0,5.554547906E-1,5.663484097E0
4.466857425E0,8.111555099E0,4.716577232E-1,5.288791656E0
4.476659848E0,8.196549416E0,4.680664241E-1,5.270834923E0
4.486665309E0,8.139088631E0,4.716577232E-1,5.305551052E0
4.496665002E0,8.175002098E0,3.890577853E-1,5.137956619E0
4.506651348E0,8.443152428E0,4.405331016E-1,5.088875771E0
4.516679117E0,8.714894295E0,4.560954273E-1,5.219359875E0
4.527630117E0,8.708909035E0,4.656722248E-1,5.175066948E0
4.536669617E0,8.392873764E0,4.836287498E-1,5.141548157E0
4.546672425E0,8.172607422E0,4.955997467E-1,5.179855347E0
4.556725155E0,7.964312077E0,5.075707436E-1,5.140350819E0
4.566677809E0,7.875726700E0,5.315127969E-1,5.092466831E0
4.576667540E0,7.806294441E0,6.512228847E-1,5.002684593E0
4.586658309E0,8.431180954E0,4.955997467E-1,5.335478306E0
4.596650348E0,8.728062630E0,2.861070931E-1,5.505466938E0
4.606657194E0,8.675390244E0,3.016694188E-1,5.330689907E0
4.616653540E0,8.695740700E0,3.148375154E-1,5.058948040E0
4.626693540E0,8.832210541E0,3.615244627E-1,5.037400246E0
4.636682655E0,8.835801125E0,4.548983276E-1,5.037400246E0
4.646684425E0,8.536525726E0,5.494692922E-1,4.614823818E0
4.656679078E0,8.061277390E0,6.129156351E-1,4.237737179E0
4.666686848E0,7.993042469E0,6.057330370E-1,4.407725334E0
4.676692809E0,8.125920296E0,5.494692922E-1,4.513070107E0
4.686678963E0,8.340201378E0,5.482721925E-1,4.596867085E0
4.696662040E0,8.754398346E0,4.788403511E-1,4.745307922E0
4.706681386E0,9.039308548E0,3.507505357E-1,4.838681698E0
4.716680617E0,8.913613319E0,1.987187415E-1,4.094084740E0
4.726688694E0,8.438364029E0,2.777273953E-1,3.772064686E0
4.736744848E0,8.672995567E0,3.734954596E-1,3.695450306E0
4.746706078E0,8.537723541E0,2.059013397E-1,3.566163540E0
4.756680386E0,8.580819130E0,2.466027737E-1,3.800795317E0
4.766644848E0,8.935160637E0,2.980781198E-1,4.177882195E0
4.776701848E0,9.085995674E0,2.561795712E-1,4.290409565E0
4.786649809E0,8.644265175E0,2.358288616E-1,3.951629877E0
4.796650040E0,8.319850922E0,2.980781198E-1,3.715801001E0
4.806650463E0,8.426392555E0,2.849099934E-1,3.597288132E0
4.816755424E0,8.923190117E0,2.920926213E-1,3.945644379E0
4.826705463E0,9.503783226E0,4.393360019E-1,4.025850296E0
4.836753040E0,9.774328232E0,4.620809257E-1,3.960009575E0
4.846695271E0,9.678560257E0,2.166752517E-1,3.567360640E0
4.856752424E0,9.566033363E0,2.154781520E-1,2.968810081E0
4.866644540E0,9.282320023E0,5.015852451E-1,3.102885485E0
4.876652501E0,8.938752174E0,4.884171486E-1,2.901772499E0
4.886675924E0,8.937555313E0,3.830722570E-1,2.816778183E0
4.896688540E0,9.054870605E0,3.782838583E-1,3.066972494E0
4.906676001E0,9.724050522E0,5.386953801E-2,3.432088137E0
4.916677463E0,1.005684471E1,1.065419763E-1,3.531447411E0
4.926653117E0,1.024239445E1,2.382230759E-1,3.851073503E0
4.936675540E0,1.009754562E1,2.094926536E-1,4.177882195E0
4.946686809E0,9.710882187E0,-4.788403399E-3,3.817554712E0
4.956677117E0,9.774328232E0,1.197100803E-2,3.655946016E0
4.966642194E0,9.548076630E0,-3.950432688E-2,3.491943121E0
4.976688386E0,9.251194954E0,5.985504016E-3,3.209427357E0
4.986675924E0,9.266757965E0,2.370259613E-1,3.118447781E0
4.996687617E0,9.327810287E0,2.645592988E-1,3.116053581E0
5.006687078E0,9.281123161E0,2.346317619E-1,3.143586874E0
5.016688693E0,9.264363289E0,3.268085420E-1,3.232172251E0
5.026684040E0,9.458293915E0,4.297592044E-1,3.309983969E0
5.036686540E0,9.418789864E0,4.273650050E-1,3.113659382E0
5.046686847E0,9.105149269E0,3.411737382E-1,2.877830505E0
5.056677617E0,9.030928612E0,2.789244950E-1,3.185485363E0
5.066682232E0,9.029731750E0,1.556231081E-1,3.342305660E0
5.076693770E0,8.856152534E0,-5.386953801E-2,3.075352192E0
5.086676540E0,8.895656586E0,9.696517140E-2,3.052607059E0
5.096686117E0,9.374496460E0,1.795651317E-1,3.278859138E0
5.106676809E0,9.891644478E0,1.065419763E-1,3.533841610E0
5.116679886E0,9.902418137E0,1.711854190E-1,3.433285236E0
5.126651463E0,9.807847023E0,3.256114423E-1,3.468001127E0
5.136676770E0,9.791088104E0,2.501940727E-1,3.375824451E0
5.146692001E0,9.679757118E0,2.525882721E-1,3.353079557E0
5.156680540E0,9.752780914E0,2.729389966E-1,3.196259260E0
5.166678078E0,9.513360023E0,1.891419291E-1,2.874239206E0
5.176665924E0,9.121908188E0,8.499415964E-2,2.624045134E0
5.186647040E0,8.973467827E0,1.975216419E-1,2.330755472E0
5.196645847E0,8.755595207E0,3.184288144E-1,2.267308950E0
5.206680155E0,8.790311813E0,2.645592988E-1,2.327163935E0
5.216680809E0,9.074024200E0,1.999158412E-1,2.559401512E0
5.226678001E0,9.718064308E0,6.368576288E-1,3.301604033E0
5.236685193E0,1.010113716E1,5.422866940E-1,3.162740469E0
5.246687578E0,1.008318043E1,3.734954596E-1,3.074155092E0
5.256681193E0,9.707290649E0,2.837128937E-1,2.971204281E0
5.266684116E0,9.318233490E0,2.717418969E-1,2.797624588E0
5.276656309E0,9.159018517E0,3.722983599E-1,2.712630510E0
5.286678809E0,8.975862503E0,5.063736439E-1,2.583343744E0
5.296686655E0,8.894459724E0,5.722141862E-1,2.266111851E0
5.306682847E0,8.775946617E0,4.812345505E-1,1.958456993E0
5.316677770E0,8.995016098E0,3.722983599E-1,1.642422318E0
5.326684693E0,9.543288231E0,4.513070285E-1,1.881842494E0
5.336678655E0,1.000417137E1,3.339911401E-1,2.280477047E0
5.346645809E0,1.054645824E1,2.597708702E-1,3.298012733E0
5.356685193E0,1.063264942E1,5.231330991E-1,3.567360640E0
5.366678693E0,1.026274586E1,5.279214978E-1,3.329137564E0
5.376657809E0,9.578003883E0,3.950432837E-1,3.016694069E0
5.386677655E0,9.166201591E0,2.992752194E-1,2.862268209E0
5.396653347E0,9.078812599E0,3.567360640E-1,2.852691412E0
5.406646078E0,9.046490669E0,2.992752194E-1,2.626439333E0
5.416646809E0,8.990227699E0,2.070984542E-1,2.329558372E0
5.426643309E0,9.230844498E0,2.454056740E-1,2.091335297E0
5.436647886E0,9.530119896E0,1.903390288E-1,2.144007683E0
5.446650732E0,9.651026726E0,9.337386489E-2,2.120065689E0
5.456678616E0,9.864110947E0,8.259996027E-2,2.127248287E0
5.466683539E0,9.896432877E0,1.604115069E-1,2.255337954E0
5.476690693E0,9.793481827E0,3.136404157E-1,2.551021814E0
5.486646770E0,9.688137054E0,5.997475386E-1,2.925714493E0
5.496683116E0,9.405621529E0,6.536170840E-1,2.841917515E0
5.506680001E0,9.168595314E0,4.082113802E-1,2.561795712E0
5.516682732E0,9.415198326E0,1.185129806E-1,2.555810213E0
5.526687347E0,9.786299706E0,1.735796183E-1,2.614468336E0
5.536688424E0,9.593565941E0,4.058171809E-1,2.397793055E0
5.546683078E0,9.424775124E0,6.296750307E-1,2.183511972E0
5.556678693E0,9.555258751E0,8.678981066E-1,1.692700624E0
5.566679039E0,9.595960617E0,7.625532150E-1,1.423352957E0
5.576687347E0,9.685743332E0,4.429273009E-1,1.441309452E0
5.586675924E0,9.698910713E0,2.753331885E-2,1.533486247E0
5.596654155E0,9.623494148E0,-1.412578970E-1,1.646013618E0
5.606649808E0,9.491812706E0,8.259996027E-2,1.845929503E0
5.616649924E0,9.337387085E0,3.495534360E-1,2.025494576E0
5.626643924E0,9.227252960E0,6.224924326E-1,2.223016262E0
5.636646732E0,9.300276756E0,7.972691655E-1,2.080561161E0
5.646654193E0,9.562441826E0,5.913678408E-1,2.139219284E0
5.656646808E0,9.774328232E0,3.315969408E-1,2.433706045E0
5.666649539E0,9.828198433E0,3.818751574E-1,2.631227732E0
5.676691116E0,9.532513618E0,5.770025849E-1,2.871845007E0
5.686675885E0,9.179368973E0,9.708487988E-1,3.120841980E0
5.696682270E0,8.965087891E0,1.350329757E0,3.077746391E0
5.706675808E0,7.842207432E0,2.873041928E-1,3.810372114E0
5.716686155E0,7.655459881E0,-5.746083856E-1,2.806004286E0
5.726691501E0,8.874108315E0,-9.528923035E-1,1.618480325E0
5.736679039E0,9.956287384E0,-9.696516991E-1,1.149216771E0
5.746682847E0,1.065419769E1,-6.823474765E-1,9.624691010E-1
5.756678924E0,1.099776554E1,-3.459621370E-1,7.661445141E-1
5.766648347E0,1.074038887E1,-4.309563041E-1,1.963245422E-1
5.776687731E0,1.009874249E1,-1.005564690E0,2.286462635E-1
5.786676308E0,9.159018517E0,-1.418564558E0,3.675099611E-1
5.796641193E0,8.978256226E0,-1.124077678E0,4.094084799E-1
5.806644654E0,9.651026726E0,-3.699041605E-1,9.876081944E-1
5.816679962E0,1.051174259E1,3.292027414E-1,1.788468719E0
5.826684347E0,1.073440361E1,6.787561774E-1,2.268506050E0
5.836676808E0,1.012268448E1,8.690952063E-1,3.622427225E0
5.846646885E0,9.497797966E0,1.114500880E0,3.124433279E0
5.856641731E0,9.362525940E0,1.063025594E0,1.090558887E0
5.866878731E0,8.993818283E0,9.684545994E-1,6.177040339E-1
5.876738616E0,9.044096947E0,7.577648163E-1,6.177040339E-1
5.886680154E0,9.301473618E0,2.873041928E-1,6.596025825E-1
5.896677770E0,9.989806175E0,-2.454056740E-1,1.164779186E0
5.906675885E0,1.034774017E1,-3.555389643E-1,1.610100627E0
5.916645693E0,1.040639782E1,-1.759738177E-1,1.653196216E0
5.926646501E0,1.009754562E1,-5.626374111E-2,1.588552833E0
5.936643001E0,9.891644478E0,7.422025502E-2,1.448492050E0
5.946645039E0,9.840168953E0,1.927332431E-1,1.138442874E0
5.956638154E0,9.901221275E0,3.363853395E-1,7.553706169E-1
5.966643654E0,1.012507915E1,3.842693865E-1,4.979939461E-1
5.976678924E0,1.026513958E1,3.663128614E-1,4.118026793E-1
5.986713500E0,1.018732834E1,2.681505978E-1,3.806780577E-1
5.996721962E0,9.827000618E0,1.173158810E-1,3.842693865E-1
6.006678500E0,9.355342865E0,-6.224924326E-2,2.142810524E-1
6.016671500E0,8.973467827E0,-1.376665950E0,-4.479551315E0
6.026677885E0,9.366117477E0,-9.540894032E-1,4.704606235E-1
6.036664885E0,9.222464561E0,-1.397016644E0,3.805583715E0
6.046667000E0,1.017655468E1,-1.346738458E0,1.910573006E0
6.056663000E0,1.072841740E1,-1.295263171E0,2.191891670E0
6.066713116E0,1.009275723E1,-1.089361787E0,1.687912226E0
6.076709847E0,9.160215378E0,-5.865794420E-1,1.229422569E0
6.086672539E0,8.805873871E0,-3.004723191E-1,1.031900883E0
6.096670423E0,9.290699959E0,1.891419291E-1,8.283938169E-1
6.106730731E0,9.696516991E0,3.531447649E-1,5.925649405E-1
6.116671539E0,9.765948296E0,-8.379705995E-2,6.703764796E-1
6.126661885E0,9.586383820E0,-6.883329749E-1,2.741360962E-1
6.136663500E0,9.309853554E0,-1.085770488E0,9.576806426E-2
6.146694693E0,9.248801231E0,-1.286883354E0,5.410895944E-1
6.156647731E0,9.299078941E0,-1.186326981E0,6.835445762E-1
6.166647808E0,8.942343712E0,-1.064222693E0,6.919242740E-1
6.176641962E0,8.638279915E0,-1.255758762E0,6.536170840E-1
6.186678231E0,8.773551941E0,-1.532289028E0,5.255272985E-1
6.196660885E0,9.186552048E0,-1.819593310E0,4.872200489E-1
6.206649500E0,9.338583946E0,-2.297236443E0,6.129156351E-1
6.216650770E0,9.471462250E0,-2.583343744E0,2.346317619E-1
6.226657308E0,9.331400871E0,-3.017891169E0,2.645592988E-1
6.236688193E0,9.259574890E0,-3.189076662E0,6.955155730E-1
6.246660616E0,9.782708168E0,-2.877830505E0,1.059434295E0
6.256645346E0,9.940725327E0,-2.682703018E0,1.264138460E0
6.266671308E0,1.010831928E1,-2.761711597E0,1.637633920E0
6.276697770E0,1.049977112E1,-2.771288395E0,1.356315255E0
6.286648846E0,1.028070164E1,-2.797624588E0,8.643068075E-1
6.296708500E0,9.381679535E0,-3.418920040E0,9.253589511E-1
6.306683231E0,8.791508675E0,-3.807977915E0,1.277306557E0
6.316975000E0,8.408436775E0,-3.719392300E0,1.362300754E0
6.326764769E0,8.493430138E0,-3.361459255E0,1.337161660E0
6.336693885E0,9.247604370E0,-3.195062160E0,1.600523829E0
6.346693616E0,9.798270226E0,-3.168725967E0,1.750161409E0
6.356693846E0,1.007240677E1,-3.454833031E0,1.922544003E0
6.366672269E0,9.624691010E0,-3.778050184E0,1.849520802E0
6.376694039E0,9.200917244E0,-3.979163170E0,1.270123959E0
6.386684308E0,8.780735016E0,-4.092887878E0,1.053448796E0
6.396656616E0,8.439560890E0,-4.007893562E0,1.253364563E0
6.406642346E0,8.517372131E0,-3.845088005E0,1.339555860E0
6.416666231E0,8.474276543E0,-4.027047157E0,1.337161660E0
6.426652231E0,8.833407402E0,-4.331110954E0,1.279700756E0
6.436690923E0,9.074024200E0,-4.590881824E0,1.133654475E0
6.446652808E0,8.779537201E0,-4.832695961E0,1.095347285E0
6.456643077E0,8.635885239E0,-5.189432144E0,1.176750183E0
6.466649192E0,8.748413086E0,-5.298368454E0,1.154005170E0
6.476659231E0,8.412027359E0,-5.129577160E0,4.249708056E-1
6.486648116E0,7.979874134E0,-5.079298973E0,3.734954596E-1
6.496671846E0,8.019378662E0,-5.276820660E0,8.319851160E-1
6.506691269E0,8.501810074E0,-5.471948147E0,9.145850539E-1
6.516655462E0,8.743624687E0,-5.712565422E0,6.177040339E-1
6.526684692E0,8.667010307E0,-6.206967831E0,3.782838583E-1
6.536679462E0,8.632294655E0,-6.545747280E0,2.322375625E-1
6.546649231E0,8.513781548E0,-6.580463409E0,2.609679997E-1
6.556690885E0,8.276755333E0,-6.264428616E0,3.651157618E-1
6.566667962E0,8.000225067E0,-5.685031891E0,3.651157618E-1
6.576645577E0,7.462726593E0,-5.728127480E0,1.328781992E-1
6.586642346E0,7.244854450E0,-6.009446144E0,-1.867477298E-1
6.596657039E0,7.607575893E0,-6.332663536E0,-4.417302012E-1
6.606645692E0,7.791929245E0,-6.475118637E0,-4.177882075E-1
6.616653769E0,7.620744228E0,-6.454767704E0,-1.508347094E-1
6.626670115E0,7.381323814E0,-6.318298340E0,-3.471592441E-2
6.636705077E0,7.186196327E0,-6.584054470E0,-3.375824392E-1
6.646768423E0,6.611588001E0,-7.076063156E0,-8.080430627E-1
6.656649231E0,6.397306919E0,-7.360973358E0,-9.409212470E-1
6.666703615E0,6.436811447E0,-7.325059891E0,-1.052251697E0
6.676669615E0,6.671442986E0,-7.169436932E0,-1.185129881E0
6.686701308E0,6.582857609E0,-7.250839710E0,-1.181538582E0
6.696725654E0,6.426037312E0,-7.411251545E0,-9.708487988E-1
6.706704231E0,6.762422562E0,-7.392097950E0,-7.601590157E-1
6.716681846E0,6.886921406E0,-7.231686115E0,-5.817909837E-1
6.726683538E0,6.789956093E0,-6.993463039E0,-6.895300746E-1
6.736653846E0,6.622362137E0,-6.764816761E0,-9.014169574E-1
6.746649346E0,6.163872242E0,-6.890512466E0,-9.349357486E-1
6.756661692E0,6.154295444E0,-7.327454090E0,-1.221042871E0
6.766686846E0,5.985504150E0,-7.906851292E0,-1.242590666E0
6.776669577E0,5.748478413E0,-8.190564156E0,-1.274912357E0
6.786690423E0,5.043385983E0,-7.892486095E0,-1.201889277E0
6.796661231E0,4.861426353E0,-7.334636688E0,-1.015141487E0
6.806706538E0,5.090072632E0,-7.210138321E0,-8.391677141E-1
6.817525231E0,5.838260651E0,-7.522581577E0,-8.523358107E-1
6.826669308E0,6.295553207E0,-7.720103264E0,-8.954314590E-1
6.836683577E0,5.841852188E0,-8.046912193E0,-1.065419793E0
6.847257461E0,5.825092793E0,-8.447940826E0,-1.197100878E0
6.856680154E0,5.832275391E0,-8.408436775E0,-1.344344258E0
6.866647615E0,4.954800606E0,-8.140285492E0,-8.990227580E-1
6.876653384E0,4.944026470E0,-7.866149902E0,-1.069011092E0
6.886651000E0,5.231330872E0,-8.196549416E0,-1.264138460E0
6.896662884E0,4.882974148E0,-8.483853340E0,-1.200692177E0
6.906682461E0,4.728548527E0,-8.422801971E0,-1.270123959E0
6.916687769E0,4.989516258E0,-8.434772491E0,-9.624691010E-1
6.926725808E0,5.181052685E0,-8.598775864E0,-1.286883354E0
6.936941115E0,4.437653065E0,-8.809465408E0,-2.171540976E0
6.948289923E0,4.088099480E0,-9.241618156E0,-2.257732153E0
6.956683154E0,4.056974888E0,-9.352949142E0,-2.029085875E0
6.966654731E0,4.122815132E0,-8.980650902E0,-1.921346903E0
6.976674500E0,3.313575268E0,-8.731653214E0,-1.649604917E0
6.986699346E0,3.507505417E0,-8.348581314E0,-1.003170490E0
6.996655654E0,4.611232281E0,-8.473079681E0,-1.380257249E0
7.006697654E0,4.417302132E0,-8.955511093E0,-2.436100245E0
7.016682615E0,3.648763418E0,-9.028534889E0,-2.639607430E0
7.026657731E0,3.275267839E0,-8.784325600E0,-2.123656988E0
7.036645269E0,2.906560898E0,-8.959102631E0,-2.232593060E0
7.046697038E0,2.385822058E0,-9.465476036E0,-2.597708941E0
7.056649115E0,3.032256365E0,-9.940725327E0,-2.953247786E0
7.066651615E0,3.454833031E0,-1.011310768E1,-2.743755102E0
7.076644000E0,3.373430252E0,-9.904812813E0,-2.662352324E0
7.086644769E0,3.371036053E0,-9.209297180E0,-2.345120668E0
7.096678307E0,2.965218782E0,-9.107542992E0,-2.146401882E0
7.106645269E0,2.090138197E0,-8.980650902E0,-2.333149672E0
7.116678000E0,2.414552450E0,-8.737639427E0,-2.448071241E0
7.126677807E0,2.281674147E0,-8.765172005E0,-2.248155355E0
7.136676692E0,2.334346771E0,-8.984241486E0,-2.234987259E0
7.146682923E0,2.813186884E0,-9.519346237E0,-2.662352324E0
7.156676038E0,2.495955229E0,-9.908403397E0,-3.313575268E0
7.166653577E0,2.090138197E0,-9.866505623E0,-3.499125719E0
7.176650000E0,1.968033791E0,-1.016578007E1,-3.033453465E0
7.186643577E0,2.076969862E0,-9.951498985E0,-2.833537817E0
7.196662307E0,2.430114746E0,-9.689333916E0,-2.609679937E0
7.206717153E0,2.802412987E0,-9.477447510E0,-2.409764051E0
7.216747730E0,2.578555346E0,-9.204508781E0,-2.536656618E0
7.226753653E0,2.296039343E0,-8.902838707E0,-2.482787132E0
7.236663807E0,2.452859640E0,-8.500613213E0,-2.063801765E0
7.246690115E0,2.462436438E0,-8.255207062E0,-2.030282974E0
7.256672577E0,2.309207439E0,-8.355764389E0,-2.328361034E0
7.266667077E0,1.927332401E0,-8.570044518E0,-2.881421804E0
7.276671269E0,1.072602391E0,-9.126696587E0,-3.630806923E0
7.286683307E0,-1.352723986E-1,-9.720458984E0,-3.541024208E0
7.296748000E0,-3.711012751E-2,-9.773131371E0,-3.298012733E0
7.306684192E0,6.224924326E-1,-9.607931137E0,-3.447650433E0
7.316667346E0,8.822633028E-1,-9.344569206E0,-3.280056238E0
7.326672538E0,8.714894056E-1,-8.870517731E0,-2.671929121E0
7.338849961E0,1.291671872E0,-8.422801971E0,-2.372653961E0
7.356660115E0,2.159569979E0,-8.457517624E0,-2.530671120E0
7.366678000E0,1.459265947E0,-8.955511093E0,-2.820369720E0
7.376667115E0,1.240196466E0,-9.338583946E0,-3.165134668E0
7.386691269E0,1.021126986E0,-9.873687744E0,-3.457227230E0
7.396737538E0,5.494692922E-1,-1.008916569E1,-3.179499865E0
7.406667961E0,7.625532150E-1,-9.714473724E0,-3.238157749E0
7.416682346E0,1.029506683E0,-9.610325813E0,-3.175908566E0
7.426755115E0,5.985504389E-1,-9.380482674E0,-2.847903013E0
7.436660999E0,5.590460896E-1,-9.077615738E0,-2.469619036E0
7.446732999E0,1.224634171E0,-9.034520149E0,-2.337938070E0
7.456716653E0,1.471236944E0,-9.115922928E0,-2.285265446E0
7.466734153E0,1.811213613E0,-8.875306129E0,-2.472013235E0
7.476751692E0,1.897404790E0,-8.933963776E0,-2.615665436E0
7.486721923E0,1.731007814E0,-9.829395294E0,-3.245340347E0
7.496736807E0,3.938461840E-1,-1.001973438E1,-3.020285368E0
7.506996269E0,8.008604646E-1,-9.495404243E0,-2.633621931E0
7.516723038E0,1.066616893E0,-9.142259598E0,-2.472013235E0
7.526662115E0,6.368576288E-1,-8.834604263E0,-2.182314873E0
7.536666846E0,5.674257874E-1,-8.421604156E0,-2.072181463E0
7.546697461E0,9.744400978E-1,-8.414422035E0,-1.900996208E0
7.556709115E0,1.491587639E0,-8.664615631E0,-2.049436569E0
7.566665730E0,1.781286120E0,-9.199720383E0,-2.573766708E0
7.576667269E0,1.136048675E0,-9.599552155E0,-2.715024710E0
7.586686769E0,1.188721180E0,-1.014064121E1,-3.153163671E0
7.596732961E0,5.015852451E-1,-1.086129570E1,-3.409343243E0
7.606659961E0,-1.388636976E-1,-1.107198620E1,-3.272873640E0
7.616678153E0,1.891419291E-1,-1.069729328E1,-2.651578426E0
7.626703269E0,8.092401624E-1,-1.002811337E1,-2.061407566E0
7.636677192E0,1.260547161E0,-9.398438454E0,-1.669955730E0
7.646678269E0,8.559271097E-1,-8.532935143E0,-9.265560508E-1
7.656713692E0,1.399410844E0,-8.245630264E0,-8.439561129E-1
7.666795115E0,2.361880064E0,-8.656236649E0,-1.592144132E0
7.676672692E0,2.359485865E0,-9.277531624E0,-1.504755735E0
7.686665384E0,2.527079821E0,-9.513360023E0,-2.613271236E0
7.696738192E0,1.910573006E0,-9.385271072E0,-2.920926094E0
7.706733461E0,1.052251697E0,-9.949105263E0,-2.911349297E0
7.716685999E0,4.141969085E-1,-1.032020664E1,-3.417722940E0
7.726714038E0,-3.711012602E-1,-1.079545593E1,-2.970007181E0
7.736709115E0,-8.750807047E-1,-1.016578007E1,-2.413355350E0
7.746768615E0,1.939303428E-1,-9.235632896E0,-2.324769735E0
7.756725922E0,6.596025825E-1,-9.267954826E0,-1.727416515E0
7.766668922E0,7.422025204E-1,-9.240421295E0,-1.642422318E0
7.776659922E0,1.320402265E0,-9.361329079E0,-1.860294700E0
7.786679653E0,1.534683347E0,-9.633070946E0,-1.780089021E0
7.799381576E0,1.824381709E0,-9.521739960E0,-2.110488892E0
7.816686153E0,1.240196466E0,-9.923966408E0,-2.250549555E0
7.826682384E0,1.119289279E0,-9.558850288E0,-2.160767078E0
7.836644115E0,1.005564690E0,-9.403226852E0,-1.928529501E0
7.846654999E0,8.128314614E-1,-8.961497307E0,-1.728613615E0
7.856651422E0,1.242590666E0,-9.021351814E0,-1.292868972E0
7.866796345E0,1.022324085E0,-9.187748909E0,-8.942343593E-1
7.876695115E0,1.171961784E0,-8.677783966E0,-6.512228847E-1
7.886649922E0,2.217030764E0,-8.288725853E0,-5.219359994E-1
7.896761922E0,3.043030262E0,-8.361749649E0,-4.213795066E-1
7.906644691E0,2.989160776E0,-8.802282333E0,-3.579331636E-1
7.916649653E0,2.687491417E0,-9.272743225E0,-3.950432837E-1
7.926678191E0,2.485181332E0,-9.762357712E0,-8.535329103E-1
7.936686191E0,1.393425345E0,-1.022084713E1,-1.561019540E0
7.946695307E0,-1.316810995E-1,-1.050934792E1,-1.721431017E0
7.956640576E0,-1.221042871E-1,-1.015979481E1,-1.150413871E0
7.966672461E0,2.801215947E-1,-9.767146111E0,-4.118026793E-1
7.976704499E0,1.222239971E0,-9.509769440E0,-4.201824069E-1
7.986731461E0,2.470816135E0,-9.443928719E0,-4.201824069E-1
7.996722999E0,3.513490915E0,-9.500192642E0,5.279214978E-1
8.006656384E0,3.994725466E0,-9.676166534E0,9.840168953E-1
8.016675422E0,3.796006680E0,-9.758766174E0,8.786720037E-1
8.026711538E0,2.240972757E0,-9.771934509E0,3.603273630E-1
8.036694807E0,2.549824715E-1,-9.738415718E0,3.746925592E-1
8.046721922E0,1.675941236E-2,-9.419986725E0,6.224924326E-1
8.056660961E0,1.625662923E0,-9.251194954E0,1.255758762E0
8.066733961E0,2.816778183E0,-9.223662376E0,1.556231141E0
8.076685576E0,3.134010077E0,-9.212887764E0,2.489969730E0
8.086723268E0,3.685873508E0,-9.362525940E0,1.562216640E0
8.096682461E0,2.808398485E0,-9.611522675E0,1.563413739E0
8.106672384E0,2.683900118E0,-9.464279175E0,2.255337954E0
8.116734384E0,2.522291422E0,-9.016563416E0,2.244564056E0
8.126723037E0,1.930923700E0,-9.074024200E0,1.965639591E0
8.136709345E0,1.619677424E0,-9.573215485E0,2.189497471E0
8.146686384E0,1.035492182E0,-8.321047783E0,2.975992680E0
8.156667884E0,2.367865562E0,-9.089587212E0,2.558204412E0
8.166721537E0,3.442862034E0,-9.962273598E0,2.242169857E0
8.176655960E0,4.133589268E0,-1.069011021E1,2.042253971E0
8.186719730E0,3.386598349E0,-1.034295177E1,2.664746523E0
8.196668460E0,3.268085241E0,-9.101557732E0,3.210624456E0
8.206662999E0,2.493561029E0,-8.503006935E0,3.599682331E0
8.216667730E0,1.571793437E0,-8.941145897E0,3.610456228E0
8.226714230E0,1.751358509E0,-8.859743118E0,3.671508312E0
8.236733037E0,2.254140854E0,-8.350975990E0,3.938461781E0
8.246857153E0,2.038662672E0,-8.513781548E0,3.951629877E0
8.256663114E0,2.232593060E0,-8.556877136E0,4.198232651E0
8.266719653E0,2.647987127E0,-8.987833023E0,3.593696833E0
8.276670114E0,1.583764434E0,-9.567230225E0,2.971204281E0
8.286719730E0,1.253364563E0,-9.524134636E0,3.479972124E0
8.296670037E0,2.074575663E0,-9.232041359E0,4.223371983E0
8.306726845E0,2.515108824E0,-9.148244858E0,4.915296078E0
8.316740153E0,3.084928989E0,-8.650250435E0,5.574898720E0
8.326688345E0,3.405751944E0,-8.082824707E0,6.105214119E0
8.336666345E0,2.875436306E0,-8.179790497E0,6.758831501E0
8.346724960E0,2.561795712E0,-8.374917984E0,5.925649166E0
8.356680960E0,1.413776159E0,-8.428787231E0,4.413711071E0
8.366670999E0,6.284779310E-1,-8.592789650E0,3.764882088E0
8.376655999E0,8.164227605E-1,-8.835801125E0,3.840299606E0
8.386717114E0,9.289502501E-1,-8.871714592E0,4.046200752E0
8.396682768E0,9.864110947E-1,-8.665813446E0,4.669890404E0
8.406724730E0,1.873462796E0,-8.503006935E0,5.207388878E0
8.416726191E0,2.201468468E0,-8.292317390E0,5.286397457E0
8.426722076E0,2.203862667E0,-8.039729118E0,5.626373768E0
8.436681422E0,3.269282341E0,-8.081627846E0,6.172252178E0
8.446719960E0,3.129221678E0,-8.263586998E0,5.986701488E0
8.456662922E0,2.439691544E0,-8.876502991E0,5.564124584E0
8.466703768E0,1.024718285E0,-9.323021889E0,5.760449409E0
8.476721845E0,1.714248419E0,-9.096769333E0,6.086060524E0
8.486662191E0,2.483984232E0,-8.862137794E0,5.353435040E0
8.496719114E0,2.258929253E0,-8.085219383E0,5.111620426E0
8.506715806E0,1.262941360E0,-7.514202118E0,5.371391296E0
8.516735422E0,8.535329103E-1,-7.070077419E0,5.544970989E0
8.526726922E0,5.195417404E-1,-7.077260017E0,5.918466568E0
8.537238499E0,5.410895944E-1,-7.110779285E0,6.048950672E0
8.546660883E0,1.278503656E0,-7.542932510E0,5.791574001E0
8.556701268E0,1.170764685E0,-8.321047783E0,5.795165062E0
8.566656037E0,5.566518903E-1,-8.560467720E0,5.793968201E0
8.576643729E0,1.915361285E-1,-8.717288017E0,6.021417141E0
8.586643691E0,3.052607179E-1,-8.678980827E0,6.560112476E0
8.596651037E0,6.236895323E-1,-8.566453934E0,6.907271862E0
8.606641960E0,6.751648784E-1,-8.079233170E0,7.408857346E0
8.616649345E0,5.315127969E-1,-6.987477779E0,7.496245384E0
8.626646960E0,1.867477298E-1,-6.378153324E0,7.182605267E0
8.636649383E0,3.471592367E-1,-6.586448669E0,6.702567577E0
8.646656806E0,1.083376288E0,-7.170634270E0,7.149086475E0
8.656648345E0,1.130063176E0,-7.742848396E0,7.592013359E0
8.666662999E0,2.477998734E-1,-7.586028099E0,7.461529732E0
8.676693575E0,2.418143749E-1,-7.094019413E0,7.323863029E0
8.686658460E0,2.908954918E-1,-6.606799603E0,7.578845501E0
8.696652883E0,6.332663298E-1,-6.411672115E0,7.839813232E0
8.706691422E0,8.463503122E-1,-6.449979305E0,8.325836182E0
8.716714999E0,7.158663273E-1,-6.602011204E0,8.570044518E0
8.726723691E0,7.900865376E-2,-7.092822552E0,8.835801125E0
8.736677960E0,-2.956839204E-1,-6.637924194E0,8.520963669E0
8.746697306E0,-3.615244627E-1,-5.677849293E0,8.058882713E0
8.756675652E0,7.302315533E-2,-5.245696068E0,7.633912086E0
8.766666075E0,5.686228871E-1,-5.528211594E0,7.721300602E0
8.776655422E0,6.655880809E-1,-5.750872612E0,7.916428089E0
8.786720191E0,6.524199843E-1,-5.622782707E0,8.012195587E0
8.796822498E0,6.284779310E-1,-5.576095581E0,8.510190010E0
8.806688575E0,5.075707436E-1,-4.979939461E0,9.240421295E0
8.816670652E0,3.974374831E-1,-4.395754337E0,9.949105263E0
8.826664383E0,-5.267243832E-2,-4.405331135E0,1.014662647E1
8.836719691E0,-6.392518282E-1,-4.605247021E0,9.789890289E0
8.846703268E0,-9.744400978E-1,-4.480748653E0,9.504981041E0
8.856659229E0,-7.314286232E-1,-4.219780445E0,9.095572472E0
8.866678768E0,-1.328781992E-1,-3.804386616E0,8.753201485E0
8.876707998E0,3.351882398E-1,-3.756502390E0,9.071630478E0
8.886672652E0,7.721300721E-1,-3.350685358E0,9.029731750E0
8.896836883E0,9.588778019E-1,-2.685097218E0,8.216899872E0
8.906741114E0,9.588778019E-1,-2.548627615E0,8.361749649E0
8.916754806E0,6.703764945E-2,-3.124433279E0,9.247604370E0
8.926716806E0,-5.422866940E-1,-3.258508444E0,9.969455719E0
8.936671229E0,-2.047042400E-1,-2.688688517E0,1.007599831E1
8.946663921E0,-1.939303428E-1,-2.546233416E0,9.840168953E0
8.956716037E0,-4.776432514E-1,-2.444479942E0,9.817423820E0
8.966736960E0,7.182604820E-2,-1.732204914E0,9.710882187E0
8.976683652E0,3.292027414E-1,-1.369483352E0,9.562441826E0
8.986686614E0,3.363853395E-1,-1.332373261E0,9.281123161E0
8.996710114E0,6.775590777E-1,-1.227028370E0,8.831012726E0
9.006705075E0,9.457096457E-1,-1.440112352E0,8.858546257E0
9.016724729E0,7.134721279E-1,-1.616086125E0,9.261969566E0
9.026715383E0,4.932055473E-1,-1.170764685E0,9.023746490E0
9.036677498E0,6.081272364E-1,-5.219359994E-1,8.529343605E0
9.046684344E0,8.200140595E-1,-4.273650050E-1,8.538920403E0
9.056671729E0,3.627215624E-1,-5.243301988E-1,9.149441719E0
9.066732268E0,-1.089361757E-1,-5.626373887E-1,9.710882187E0
9.076665729E0,-5.853823423E-1,-7.230489254E-1,1.077031612E1
9.086667921E0,-7.433996201E-1,-6.189011335E-1,1.084812832E1
9.096718383E0,-4.656722248E-1,-3.411737382E-1,1.069609642E1
9.106668267E0,-1.915361285E-1,-2.322375625E-1,1.006761837E1
9.116732306E0,6.296750307E-1,6.464344263E-2,9.738415718E0
9.126682844E0,9.780313969E-1,-1.915361360E-2,9.570821762E0
9.136689114E0,1.155202270E0,6.224924326E-2,9.416395187E0
9.146664344E0,1.203086376E0,1.687912196E-1,9.191340446E0
9.156723921E0,1.260547161E0,1.831564307E-1,9.112331390E0
9.166728114E0,1.340752959E0,4.129997790E-1,9.015366554E0
9.176682614E0,9.696516991E-1,8.248024583E-1,9.090784073E0
9.186692037E0,6.607996821E-1,1.098938584E0,9.558850288E0
9.196724575E0,4.010287821E-1,1.124077678E0,9.618705750E0
9.206672883E0,-1.987187415E-1,9.229647517E-1,9.156624794E0
9.216750421E0,2.346317619E-1,1.089361787E0,9.589975357E0
9.226657190E0,4.333505034E-1,1.027112484E0,1.010592556E1
9.236674690E0,5.015852451E-1,7.374141216E-1,9.457097054E0
9.246716921E0,7.757213712E-1,7.960720658E-1,9.477447510E0
9.256720075E0,6.835445762E-1,9.397241473E-1,9.498994827E0
9.266678075E0,-1.065419763E-1,8.008604646E-1,9.320627213E0
9.276669921E0,-4.788403511E-1,5.901707411E-1,9.640253067E0
9.286668114E0,-3.471592367E-1,7.278373241E-1,9.396044731E0
9.296674690E0,-6.021417379E-1,6.500257850E-1,8.953117371E0
9.306671998E0,-1.029506683E0,5.231330991E-1,9.224859238E0
9.316728690E0,-8.439561129E-1,7.182605267E-1,1.000058079E1
9.327089421E0,-2.920926213E-1,8.212111592E-1,1.001374817E1
9.339337421E0,-1.392228246E0,6.643909812E-1,8.543708801E0
9.356723190E0,-4.836287498E-1,9.576807022E-1,9.200917244E0
9.366752844E0,3.711012602E-1,1.101332784E0,8.985439301E0
9.377012075E0,8.403648138E-1,1.262941360E0,9.524134636E0
9.386667690E0,7.398083210E-1,1.134851575E0,1.025197124E1
9.396656806E0,7.553706169E-1,1.082179189E0,1.097142887E1
9.406684998E0,1.233013868E-1,3.806780577E-1,1.140956783E1
9.416681921E0,-8.140285611E-1,1.436521020E-2,9.834183693E0
9.426658536E0,-2.239775658E0,3.387795389E-1,7.946355343E0
9.436727652E0,3.591302549E-3,1.222239971E0,8.141483307E0
9.446659229E0,1.539471745E0,1.400607944E0,8.742427826E0
9.456664075E0,1.059434295E0,8.942343593E-1,9.024943352E0
9.466671152E0,7.445967197E-1,6.500257850E-1,1.012747288E1
9.476659883E0,2.334346771E0,9.876081944E-1,9.593565941E0
9.486665306E0,1.687912226E0,9.229647517E-1,9.992200851E0
9.496666190E0,1.699883193E-1,5.626374111E-2,1.071046162E1
9.506665036E0,-3.878606856E-1,-6.835445762E-1,9.805453300E0
9.516684767E0,-1.218648672E0,-5.327098966E-1,8.637083054E0
9.526713690E0,-1.119289279E0,-5.339069963E-1,8.969876289E0
9.536677921E0,-5.626373887E-1,-7.517793179E-1,9.920374870E0
9.546657306E0,3.938461840E-1,-6.931213737E-1,1.032619190E1
9.556661959E0,4.417302012E-1,-7.769184709E-1,1.036689377E1
9.566676036E0,8.271966577E-1,-4.944026470E-1,1.010233402E1
9.576682575E0,1.072602391E0,-2.968810201E-1,1.083974838E1
9.586695959E0,1.705868721E0,-7.074866295E-1,1.170884323E1
9.596670844E0,1.307234168E0,-3.986345828E-1,1.145505810E1
9.606666421E0,6.943184733E-1,-2.908954918E-1,1.017176628E1
9.616742229E0,3.375824392E-1,-6.332663298E-1,9.414001465E0
9.626667152E0,-2.992752194E-1,-7.601590157E-1,8.993818283E0
9.636666498E0,-3.327940404E-1,-4.548983276E-1,8.273163795E0
9.646663229E0,-1.017535701E-1,-4.094084799E-1,8.101978302E0
9.656670075E0,8.140286058E-2,-3.244143426E-1,8.437167168E0
9.666733075E0,4.153940082E-1,-3.687070608E-1,9.458293915E0
9.676681152E0,1.203086376E0,-1.508347094E-1,1.112824917E1
9.686758498E0,2.414552450E0,1.328781992E-1,1.224993324E1
9.696664652E0,3.025073767E0,2.023100406E-1,1.270243740E1
9.706664575E0,2.537853718E0,2.777273953E-1,1.269166279E1
9.716693844E0,1.480813742E0,4.920084476E-1,1.099776554E1
9.726726190E0,1.019929886E0,7.242460251E-1,9.131484985E0
9.736684113E0,8.822633028E-1,4.788403511E-1,8.021772385E0
9.746659882E0,3.196259141E-1,-3.651157618E-1,7.885303497E0
9.756668036E0,9.337386489E-2,-5.410895944E-1,8.538920403E0
9.766694998E0,-2.310404629E-1,-6.655880809E-1,9.404424667E0
9.776674229E0,-6.584054977E-2,-8.607155085E-1,1.038245583E1
9.786674652E0,2.765302956E-1,-6.440402865E-1,1.109712505E1
9.796663729E0,5.482721925E-1,-3.806780577E-1,1.108515358E1
9.806671459E0,4.776432514E-1,-5.865794048E-2,1.059793377E1
9.816735267E0,2.489969730E-1,4.010287821E-1,1.006282997E1
9.826672844E0,2.789244950E-1,6.129156351E-1,9.837775230E0
9.836682652E0,6.069301367E-1,4.022258818E-1,1.023640919E1
9.846670652E0,6.775590777E-1,2.573766708E-1,1.025675964E1
9.856675152E0,9.313444495E-1,1.496376097E-1,1.082897472E1
9.866668959E0,1.266532660E0,2.956839204E-1,1.072722054E1
9.876670152E0,6.500257850E-1,5.386953950E-1,1.014902115E1
9.886696767E0,-3.555389643E-1,5.686228871E-1,1.007480049E1
9.896684421E0,-6.727706790E-1,1.209071875E-1,1.016697788E1
9.906666728E0,-1.292868853E-1,-3.926490843E-1,1.039442635E1
9.916734498E0,7.852981687E-1,-4.189853072E-1,1.025915432E1
9.926714344E0,7.577648163E-1,-1.448491961E-1,1.000417137E1
9.936731728E0,4.189853072E-1,-6.703764945E-2,9.443928719E0
9.946717805E0,5.985504389E-2,-6.021417379E-1,9.191340446E0
9.956713036E0,-4.848258495E-1,1.436521020E-2,8.804677010E0
9.966871305E0,-5.315127969E-1,1.265335560E0,8.937555313E0
9.976684113E0,-8.259996027E-2,2.197877169E0,9.415198326E0
9.986678613E0,5.913678408E-1,2.456450939E0,9.780313492E0
9.996661190E0,9.337386489E-1,2.130839586E0,9.950302124E0
1.000666534E1,6.332663298E-1,2.100912094E0,1.058835697E1
1.001666546E1,-9.576806426E-2,2.159569979E0,1.048660374E1
1.002667211E1,-2.896983922E-1,1.906981707E0,8.779537201E0
1.003667396E1,-5.506663918E-1,1.498770237E0,8.022970200E0
1.004671415E1,-5.291185975E-1,1.109712481E0,7.728483200E0
1.005666158E1,-4.165911078E-1,6.500257850E-1,8.149862289E0
1.006667308E1,-2.873041928E-1,5.386953950E-1,8.421604156E0
1.007666777E1,-2.896983922E-1,7.589619160E-1,8.128314972E0
1.008668157E1,4.165911078E-1,1.255758762E0,9.220070839E0
1.009668792E1,6.679822803E-1,1.148019671E0,1.037647057E1
1.010667957E1,9.109937549E-1,9.193734527E-1,1.137964058E1
1.011667381E1,1.217451572E0,4.788403511E-1,1.234091282E1
1.012671546E1,1.001973391E0,1.436520964E-1,1.213142014E1
1.013674273E1,2.705447972E-1,7.422025502E-2,1.169328117E1
1.014667500E1,1.256955862E-1,1.891419291E-1,1.175912189E1
1.015666811E1,3.363853395E-1,1.005564705E-1,1.082538319E1
1.016669538E1,-3.711012751E-2,-6.703764945E-2,8.869319916E0
1.017669742E1,-1.061828494E0,1.436520964E-1,8.517372131E0
1.018667223E1,-4.740519226E-1,8.391677141E-1,8.340201378E0
1.019666088E1,1.556231081E-2,1.083376288E0,8.137891769E0
1.020667019E1,6.488286853E-1,1.562216640E0,8.367734909E0
1.021675234E1,4.477157295E-1,2.038662672E0,8.151060104E0
1.022674411E1,1.747767180E-1,1.765723705E0,8.297105789E0
1.023672227E1,3.639186621E-1,1.246181965E0,8.688557625E0
1.024673096E1,3.854664862E-1,8.259995580E-1,9.132682800E0
1.025672338E1,5.566518903E-1,6.655880809E-1,9.769539833E0
1.026672192E1,6.919242740E-1,7.326257229E-1,1.004726696E1
1.027666804E1,7.673416734E-1,8.032546639E-1,9.931148529E0
1.028672734E1,5.877765417E-1,8.391677141E-1,9.939528465E0
1.029666623E1,8.403648138E-1,9.552865028E-1,1.027591324E1
1.030669865E1,9.720458984E-1,1.057040095E0,1.026035118E1
1.031667892E1,8.583213091E-1,7.254431248E-1,1.006163311E1
1.032672669E1,8.930372596E-1,9.816227108E-2,9.847352028E0
1.033669400E1,1.535880446E0,-2.418143749E-1,9.771934509E0
1.034667557E1,7.505822182E-1,-5.386953801E-2,1.013585281E1
1.035667527E1,-5.506663769E-2,1.987187415E-1,9.465476036E0
1.036673796E1,-1.388636976E-1,3.519476354E-1,9.528923035E0
1.037666573E1,1.604115069E-1,4.537012279E-1,9.786299706E0
1.038668984E1,6.584054828E-1,7.326257229E-1,9.901221275E0
1.039668884E1,7.278373241E-1,7.314286232E-1,1.017416000E1
1.040667219E1,1.034295082E0,7.003039718E-1,1.100255394E1
1.041674757E1,5.770025849E-1,3.842693865E-1,1.025675964E1
1.042714911E1,8.978256583E-2,4.321534038E-1,9.539696693E0
1.043667531E1,-1.316810958E-2,6.440402865E-1,1.016458321E1
1.044666507E1,-5.470750928E-1,-2.394201700E-3,1.129943466E1
1.045674573E1,-1.017535701E-1,-8.882488012E-1,1.078707600E1
1.046667054E1,-3.232172132E-2,-1.217451572E0,1.025915432E1
1.047666400E1,9.935937077E-2,-9.265560508E-1,9.777919769E0
1.048666892E1,1.604115069E-1,-6.548141837E-1,9.566033363E0
1.049667011E1,4.884171486E-1,-5.087678432E-1,9.776722908E0
1.050668742E1,9.026140571E-1,-3.531447649E-1,1.002452278E1
1.051667461E1,8.918401599E-1,-3.794809580E-1,9.860519409E0
1.052667761E1,4.955997467E-1,-4.656722248E-1,9.520543098E0
1.053673669E1,2.741360962E-1,-5.398924947E-1,9.165003777E0
1.054671054E1,4.668693244E-1,-5.650315881E-1,8.811859131E0
1.055666304E1,8.427590132E-1,-5.925649405E-1,8.672995567E0
1.056672746E1,1.148019671E0,-6.823474765E-1,8.713697433E0
1.057666804E1,1.327584863E0,-7.553706169E-1,8.841787338E0
1.058674300E1,1.429338455E0,-7.206547260E-1,9.012971878E0
1.059668411E1,1.497573137E0,-6.488286853E-1,9.454702377E0
1.060667384E1,1.480813742E0,-6.248866320E-1,9.836577415E0
1.061674992E1,1.358709455E0,-6.907271743E-1,9.941922188E0
1.062668346E1,9.469067454E-1,-7.900865674E-1,1.015500641E1
1.063667727E1,4.812345505E-1,-9.241618514E-1,1.038125896E1
1.064667873E1,-4.788403399E-3,-1.107318282E0,1.070806694E1
1.065667088E1,2.717418969E-1,-1.109712481E0,1.125873375E1
1.066667631E1,6.045359373E-1,-1.011550188E0,1.079665279E1
1.067673465E1,4.860229492E-1,-9.062053561E-1,9.921571732E0
1.068667677E1,5.315127969E-1,-6.428431273E-1,9.557653427E0
1.069667750E1,8.176198602E-1,-4.393360019E-1,9.629479408E0
1.070668992E1,1.151610970E0,-3.998316824E-1,9.803058624E0
1.071667507E1,1.392228246E0,-4.237737060E-1,9.929951668E0
1.072666581E1,1.447294950E0,-4.680664241E-1,9.852140427E0
1.073673396E1,9.911994934E-1,-8.499415964E-2,9.544485092E0
1.074670119E1,1.073799491E0,1.807622313E-1,9.405621529E0
1.075667407E1,1.290474772E0,1.675941199E-1,9.516951561E0
1.076668330E1,1.467645645E0,-2.873042040E-2,1.006881523E1
1.077666377E1,1.587355733E0,-2.849099934E-1,1.068173122E1
1.078673492E1,1.407790542E0,-5.267243981E-1,1.144188976E1
1.079669880E1,1.420958757E0,-4.584896266E-1,1.286643982E1
1.080667846E1,1.379060149E0,-2.298433632E-1,1.323514652E1
1.081667738E1,9.277531505E-1,-1.424549967E-1,1.278623390E1
1.082667257E1,7.481880188E-1,-1.364694983E-1,1.245822811E1
1.083666065E1,9.935936928E-1,-1.699883193E-1,1.194706631E1
1.084666634E1,1.400607944E0,-2.561795712E-1,1.117134476E1
1.085667080E1,1.565807939E0,-2.489969730E-1,1.071525002E1
1.086672392E1,1.618480325E0,-5.386953801E-2,1.084333992E1
1.087668192E1,1.727416515E0,1.412578970E-1,1.126591587E1
1.088671004E1,1.806425214E0,1.663970202E-1,1.180461121E1
1.089667777E1,1.993172884E0,2.801215947E-1,1.222359657E1
1.090677077E1,2.468421936E0,6.344634295E-1,1.239119053E1
1.091667180E1,3.114856482E0,1.086967587E0,1.276229191E1
1.092667300E1,3.780444384E0,1.565807939E0,1.370919895E1
1.093669488E1,4.411316395E0,1.861491799E0,1.511579227E1
1.094666827E1,4.321534157E0,1.851915002E0,1.561378670E1
1.095668238E1,3.796006680E0,1.667561531E0,1.576342392E1
1.096666369E1,3.384204149E0,1.631648421E0,1.484045887E1
1.097671065E1,2.953247786E0,1.869871497E0,1.358110905E1
1.098672169E1,2.740163803E0,2.207453966E0,1.300769806E1
1.099672642E1,3.021482468E0,2.627636433E0,1.339316463E1
1.100673381E1,3.701435804E0,3.147178173E0,1.437478733E1
1.101666619E1,4.062960148E0,3.448847532E0,1.559582996E1
1.102666811E1,3.958812475E0,3.538630009E0,1.641225243E1
1.103672661E1,3.470395327E0,3.706224203E0,1.646971321E1
1.104664769E1,2.877830505E0,3.842693806E0,1.593221474E1
1.105668173E1,2.628833532E0,3.845088005E0,1.569159794E1
1.106670130E1,3.124433279E0,3.675099611E0,1.569399261E1
1.107664234E1,3.153163671E0,3.682282209E0,1.565089607E1
1.108665488E1,3.338714361E0,3.705027103E0,1.565927601E1
1.109668031E1,3.588908434E0,3.585317135E0,1.549287891E1
1.110669411E1,3.624821424E0,3.361459255E0,1.526662731E1
1.111669530E1,3.697844505E0,3.189076662E0,1.502481270E1
1.112664350E1,3.659537315E0,2.978386879E0,1.471476364E1
1.113668354E1,3.792415380E0,2.798821688E0,1.452921295E1
1.114667415E1,4.049792290E0,2.681505919E0,1.420240402E1
1.115663973E1,4.062960148E0,2.585737944E0,1.361582470E1
1.116668250E1,3.971980572E0,2.534262419E0,1.302326012E1
1.117668019E1,3.772064686E0,2.347514868E0,1.238400841E1
1.118666457E1,3.488351822E0,2.102109194E0,1.177588081E1
1.119666907E1,3.296815634E0,2.063801765E0,1.117972469E1
1.120666611E1,3.246537447E0,2.375048161E0,1.049258900E1
1.121671023E1,3.424905539E0,2.870647907E0,9.470264435E0
1.122666734E1,3.301604033E0,3.128024578E0,8.591592789E0
1.123672592E1,2.906560898E0,3.168725967E0,8.248024940E0
1.124671584E1,2.448071241E0,3.128024578E0,8.462306023E0
1.125672392E1,2.234987259E0,3.117250681E0,8.783128738E0
1.126671430E1,2.195482969E0,3.025073767E0,9.119514465E0
1.127673096E1,2.633621931E0,2.779668093E0,8.608352661E0
1.128672515E1,2.322375536E0,3.144783974E0,8.791508675E0
1.129666669E1,1.823184609E0,3.885789394E0,9.133879662E0
1.130667596E1,1.634042621E0,4.390965939E0,9.249998093E0
1.131672646E1,1.958456993E0,4.571728230E0,9.373299599E0
1.132666484E1,2.462436438E0,4.687847137E0,9.188945770E0
1.133667738E1,2.686294317E0,4.856637955E0,9.030928612E0
1.134667080E1,2.738966703E0,5.154716492E0,8.425195694E0
1.135668069E1,2.461239338E0,5.270834923E0,7.430405140E0
1.136666523E1,1.758541107E0,4.944026470E0,6.364984989E0
1.137672815E1,9.289502501E-1,4.490325451E0,5.079298973E0
1.138669277E1,2.262520641E-1,4.718971729E0,5.023035049E0
1.139668642E1,3.651157618E-1,5.088875771E0,5.566518784E0
1.140666377E1,6.596025825E-1,5.194220543E0,6.412869453E0
1.141672727E1,6.392518282E-1,5.233725071E0,7.331045628E0
1.142667992E1,5.159504414E-1,5.487510204E0,8.164227486E0
1.143668838E1,8.846575022E-1,6.036979675E0,8.831012726E0
1.144667142E1,1.632845521E0,6.390124321E0,8.961497307E0
1.145667169E1,2.187103271E0,6.387730122E0,8.400056839E0
1.146672842E1,2.170343876E0,6.246472359E0,7.540538311E0
1.147667488E1,1.486799240E0,5.888539314E0,6.800729752E0
1.148673238E1,8.248024583E-1,5.352237701E0,6.118382454E0
1.149666823E1,2.537853718E-1,4.698620796E0,5.932831764E0
1.150668054E1,-3.351882398E-1,3.872621298E0,6.370970726E0
1.151667561E1,-1.107318282E0,3.303998232E0,6.580463409E0
1.152666804E1,-1.193509579E0,3.485957623E0,6.506243229E0
1.153674084E1,-6.404489279E-1,3.888183594E0,6.087257862E0
1.154666869E1,-3.315969408E-1,4.133589268E0,5.348646641E0
1.155666607E1,8.140286058E-2,4.760869980E0,4.683058739E0
1.156668130E1,9.888052940E-1,5.491101742E0,3.781641483E0
1.157665580E1,1.410184860E0,5.378573895E0,2.992752075E0
1.158669184E1,8.128314614E-1,4.824316502E0,2.540247917E0
1.159668023E1,-3.914519846E-1,4.169502258E0,2.370259762E0
1.160667223E1,-1.477222443E0,3.519476414E0,2.357091665E0
1.161667707E1,-2.169146776E0,3.169923067E0,2.351106167E0
1.162666980E1,-2.424129248E0,3.251325846E0,2.614468336E0
1.163673804E1,-2.440888643E0,3.602076530E0,2.621650934E0
1.164668665E1,-2.276885748E0,4.027047157E0,2.406172752E0
1.165670815E1,-2.033874273E0,4.400542736E0,2.728192806E0
1.166667842E1,-1.240196466E0,4.871003151E0,3.177105665E0
1.167667538E1,-1.292868853E-1,5.182249546E0,3.456030130E0
1.168669619E1,1.235408068E0,5.415684223E0,3.189076662E0
1.169672946E1,1.746570110E0,5.196614742E0,3.004723072E0
1.170670057E1,-3.866635859E-1,5.081693172E0,4.443638325E0
1.171666842E1,-1.411381960E0,5.532999992E0,5.176264286E0
1.172668627E1,-2.057816267E0,5.735310078E0,5.262455463E0
1.173673150E1,-2.014720678E0,5.904101372E0,4.180276394E0
1.174666657E1,-6.859387755E-1,6.482301235E0,2.144007683E0
1.175666557E1,6.356605291E-1,6.825869083E0,6.907271743E-1
1.176666542E1,7.769184709E-1,6.569689274E0,-2.094926536E-1
1.177714357E1,3.890577853E-1,6.142324448E0,-1.089361757E-1
1.178674988E1,-3.232172132E-2,5.896918774E0,1.496376038E0
1.179666673E1,-4.165911078E-1,5.998672485E0,2.967612982E0
1.180667346E1,-6.117185354E-1,6.397306919E0,3.872621298E0
1.181667077E1,-4.106055796E-1,6.688202381E0,4.347870350E0
1.182666884E1,-3.088520169E-1,6.607996464E0,3.925293684E0
1.183675284E1,-5.578489900E-1,6.366182327E0,2.956839085E0
1.184668304E1,-6.236895323E-1,6.297947407E0,2.050633669E0
1.185669123E1,1.149216816E-1,6.658275127E0,7.721300721E-1
1.186666850E1,1.067813993E0,6.902483463E0,-3.315969408E-1
1.187667061E1,1.587355733E0,6.756437302E0,-7.805097699E-1
1.188674023E1,1.502361536E0,6.378153324E0,-6.440402865E-1
1.189695042E1,5.937620401E-1,5.781997204E0,4.070142806E-1
1.190670000E1,-4.920084476E-1,5.300762653E0,1.954865694E0
1.191669630E1,-1.264138460E0,5.137956619E0,3.041833162E0
1.192667557E1,-1.278503656E0,5.458779812E0,3.059789658E0
1.193666938E1,-8.559271097E-1,6.042964935E0,2.248155355E0
1.194666642E1,-5.530605912E-1,6.331466198E0,1.424550056E0
1.195667754E1,-3.076549172E-1,6.081272125E0,1.048660398E0
1.196670773E1,4.788403399E-3,5.779603004E0,7.817068696E-1
1.197665976E1,-2.274491638E-2,5.474342346E0,7.793126702E-1
1.198671392E1,-3.471592367E-1,5.093664169E0,1.230619669E0
1.199668307E1,-1.200692177E0,4.660313606E0,2.003946781E0
1.200666654E1,-2.287659645E0,4.786009312E0,2.710236311E0
1.201666226E1,-1.778891921E0,5.266046524E0,2.621650934E0
1.202664684E1,-1.077390760E-1,5.238513470E0,1.168370485E0
1.203665200E1,2.363077164E0,5.813121796E0,9.241618514E-1
1.204667673E1,2.832340717E0,6.307524204E0,5.746083856E-1
1.205669369E1,2.482787132E0,6.209362030E0,7.134721279E-1
1.206667611E1,1.209071875E0,6.075286865E0,1.827973008E0
1.207664073E1,-2.418143749E-1,6.160281181E0,3.185485363E0
1.208669915E1,-1.392228246E0,5.692214489E0,3.649960518E0
1.209671396E1,-2.144007683E0,4.692635536E0,3.082534790E0
1.210674965E1,-2.183511972E0,4.125209332E0,2.740163803E0
1.211665600E1,-2.158372879E0,4.328716755E0,2.612074137E0
1.212670900E1,-2.292448044E0,4.874594688E0,2.737769604E0
1.213673204E1,-8.738836050E-1,5.458779812E0,3.681085110E0
1.214676815E1,1.374271750E0,6.241683960E0,4.167108059E0
1.215669461E1,3.092111588E0,7.226897717E0,3.661931515E0
1.216666242E1,3.380612850E0,7.240066051E0,1.640028119E0
1.217665865E1,2.613271236E0,6.375759125E0,-8.355764151E-1
1.218672404E1,1.452083349E0,5.676652431E0,-2.151190281E0
1.219671257E1,7.445967197E-1,5.178658485E0,-1.859097600E0
1.220669950E1,6.739677787E-1,4.619612217E0,-1.859097600E0
1.221671623E1,1.256955862E0,4.513070107E0,3.057395458E0
1.222671953E1,2.044648170E0,4.813542366E0,6.533776283E0
1.223671761E1,2.013523579E0,4.994304657E0,9.154230118E0
1.224666700E1,7.996633649E-1,5.210979939E0,1.023760605E1
1.225672519E1,-8.020575345E-2,5.330689907E0,9.560047150E0
1.226666646E1,-1.927332431E-1,4.978742599E0,7.062894821E0
1.227667323E1,-1.113303825E-1,4.581305027E0,4.220977783E0
1.228667603E1,-5.985504016E-3,4.313154221E0,2.276885748E0
1.229679288E1,1.436521020E-2,4.213795185E0,1.227028370E0
1.230668607E1,-1.819593310E-1,4.514267445E0,1.211466074E0
1.231667169E1,5.027823523E-2,5.328295708E0,2.555810213E0
1.232667173E1,4.752490520E-1,6.218938828E0,4.331110954E0
1.233670065E1,4.297592044E-1,6.855796337E0,5.793968201E0
1.234670534E1,4.513070285E-1,7.085639954E0,6.605602264E0
1.235668476E1,3.711012751E-2,5.753266811E0,5.246892929E0
1.236667253E1,-4.213795066E-1,5.123591423E0,4.680664539E0
1.237666892E1,-6.296750307E-1,4.740519524E0,4.752490520E0
1.238670623E1,3.232172132E-2,4.696226597E0,5.230133533E0
1.239667115E1,1.165976286E0,4.939238071E0,6.270414352E0
1.240667930E1,2.456450939E0,5.329493046E0,7.745242596E0
1.241671307E1,3.028665066E0,5.531803131E0,8.421604156E0
1.242672296E1,2.706645012E0,5.822698593E0,8.188169479E0
1.243703815E1,2.053027868E0,5.977124691E0,6.945579052E0
1.244667053E1,1.189918280E0,5.591658115E0,5.713762283E0
1.245666388E1,-1.077390742E-2,4.821922302E0,5.433640957E0
1.246666257E1,-1.582567334E0,3.882198095E0,6.381744862E0
1.247665150E1,-2.454056740E0,3.342305660E0,8.968679428E0
1.248665961E1,-1.853112102E0,3.591302633E0,1.213740540E1
1.249665292E1,-3.519476354E-1,3.848679304E0,1.492305946E1
1.250666815E1,1.516726732E0,4.067748547E0,1.608783913E1
1.251665338E1,3.226186752E0,3.737348795E0,1.497333717E1
1.252665996E1,4.467580318E0,2.881421804E0,1.425028896E1
1.253672153E1,4.583699226E0,2.777273893E0,1.396537876E1
1.254665550E1,3.494337320E0,3.171120167E0,1.307952404E1
1.255675115E1,1.906981707E0,3.458424330E0,1.150174522E1
1.256666150E1,6.619967818E-1,3.594893932E0,1.013345909E1
1.257667369E1,1.999158412E-1,3.991134167E0,1.061469364E1
1.258667434E1,1.048660398E0,4.079719543E0,1.022084713E1
1.259666442E1,2.026691675E0,3.884592295E0,1.029027843E1
1.260667146E1,1.499967337E0,4.114435673E0,1.066257763E1
1.261666330E1,-2.825157940E-1,4.290409565E0,1.168370438E1
1.262673750E1,-1.964442492E0,3.988739967E0,1.389355278E1
1.263668257E1,-2.353500366E0,3.441664934E0,1.550724411E1
1.264671238E1,-1.854309201E0,2.777273893E0,1.631049919E1
1.265719361E1,-5.746083856E-1,2.352303267E0,1.684440613E1
1.266668080E1,9.684545994E-1,2.516305923E0,1.684440613E1
1.267664311E1,1.880645394E0,2.771288395E0,1.313219643E1
1.268667657E1,1.855506301E0,3.773261786E0,1.049139214E1
1.269664323E1,1.261744261E0,4.559757233E0,8.665813446E0
1.270665277E1,2.609679997E-1,5.001487255E0,8.173804283E0
1.271665176E1,-1.516726732E0,5.385756493E0,9.776722908E0
1.272666946E1,-2.311601639E0,5.085284233E0,1.218169785E1
1.273666292E1,-2.165555477E0,3.716998100E0,1.414254951E1
1.274664796E1,-1.189918280E0,2.288856745E0,1.417367363E1
1.275665465E1,5.853823423E-1,1.719036818E0,1.263779354E1
1.276666253E1,2.604891539E0,2.161964178E0,1.122042656E1
1.277667919E1,4.091690540E0,3.180696964E0,1.048181534E1
1.278667634E1,4.578910828E0,3.818751812E0,9.756371498E0
1.279666365E1,4.011485100E0,3.986345768E0,9.105149269E0
1.280666969E1,1.783680320E0,4.304774761E0,9.400833130E0
1.281665942E1,-1.386242747E0,4.422090530E0,1.035971069E1
1.282671519E1,-2.809595585E0,3.561375141E0,1.162384892E1
1.283666715E1,-1.723825216E0,2.255337954E0,1.385883617E1
1.284666803E1,1.127668977E0,1.453280449E0,1.576222706E1
1.285675053E1,3.317166567E0,1.312022567E0,1.693179512E1
1.286669261E1,4.004302502E0,1.411381960E0,1.691264153E1
1.287667357E1,3.203441858E0,1.355118155E0,1.524747372E1
1.288667346E1,1.653196216E0,1.151610970E0,1.275391293E1
1.289667100E1,4.082113802E-1,9.923965931E-1,1.101213074E1
1.290675830E1,-4.058171809E-1,7.026981711E-1,1.019091988E1
1.291672246E1,-7.852981687E-1,3.986345828E-1,9.923966408E0
1.292669788E1,-3.172317147E-1,2.477998734E-1,9.774328232E0
1.293676146E1,3.722983599E-1,3.232172430E-1,9.417592049E0
1.294666553E1,1.154005170E0,5.506663918E-1,9.935936928E0
1.295672377E1,2.116474390E0,8.020575643E-1,1.137006378E1
1.296671642E1,2.393004656E0,6.895300746E-1,1.247618484E1
1.297672427E1,2.510320425E0,5.183446407E-1,1.361582470E1
1.298675261E1,2.456450939E0,3.854664862E-1,1.345661068E1
1.299667753E1,2.001552582E0,3.040636182E-1,1.212064648E1
1.300667842E1,9.852139950E-1,2.896983922E-1,9.312247276E0
1.301666719E1,9.074024558E-1,2.477998734E-1,8.659827232E0
1.302672776E1,1.181538582E0,1.819593310E-1,8.576030731E0
1.303666850E1,1.625662923E0,7.182605099E-3,8.987833023E0
1.304671061E1,2.404975653E0,-2.106897533E-1,9.686940193E0
1.305667123E1,3.301604033E0,-2.346317619E-1,1.037527275E1
1.306674550E1,4.009090900E0,-1.807622313E-1,1.086728191E1
1.307667053E1,4.280832767E0,-7.062894851E-2,1.156638813E1
1.308671834E1,4.091690540E0,1.077390760E-1,1.228464890E1
1.309672138E1,3.898957491E0,2.968810201E-1,1.283890629E1
1.310675865E1,3.657143116E0,4.417302012E-1,1.318965721E1
1.311669523E1,3.319560766E0,3.076549172E-1,1.316810894E1
1.312668734E1,3.116053581E0,-1.436521020E-2,1.290953541E1
1.313667569E1,2.801215887E0,-3.782838583E-1,1.239717674E1
1.314671411E1,2.340332270E0,-8.140285611E-1,1.168490124E1
1.315674515E1,2.050633669E0,-1.238999367E0,1.111268711E1
1.316672069E1,2.260126352E0,-1.549048543E0,1.128506947E1
1.317671734E1,2.419340849E0,-1.715445518E0,1.171602631E1
1.318669088E1,2.287659645E0,-1.869871497E0,1.188960552E1
1.319667423E1,2.243366957E0,-1.944091797E0,1.215536213E1
1.320667784E1,2.267308950E0,-1.825578809E0,1.275271511E1
1.321671915E1,2.360682964E0,-1.666364431E0,1.283172417E1
1.322672030E1,2.642001629E0,-1.587355733E0,1.233612442E1
1.323673550E1,2.975992680E0,-1.482010841E0,1.209670448E1
1.324673307E1,3.175908566E0,-1.280897856E0,1.202846909E1
1.325672496E1,3.387795448E0,-1.167173386E0,1.160230160E1
1.326666403E1,3.681085110E0,-9.935936928E-1,1.100614548E1
1.327668203E1,3.798400879E0,-6.284779310E-1,1.065539455E1
1.328667750E1,3.699041605E0,-4.106055796E-1,1.041836834E1
1.329666688E1,3.726574898E0,-3.962403834E-1,1.035851383E1
1.330670388E1,3.722983599E0,-5.374982953E-1,1.060272217E1
1.331673361E1,3.562572241E0,-1.006761789E0,1.098100567E1
1.332672834E1,2.414552450E0,-2.100912094E0,1.157237434E1
1.333672153E1,2.073378563E0,-2.398990154E0,1.173877048E1
1.334671126E1,1.838746905E0,-2.384624958E0,1.152568722E1
1.335673296E1,1.801636815E0,-2.031480074E0,1.102290440E1
1.336668230E1,1.769315004E0,-1.699883223E0,1.042435455E1
1.337668276E1,1.331176162E0,-1.604115129E0,9.054870605E0
1.338668038E1,1.262941360E0,-1.529894829E0,8.220491409E0
1.339666015E1,1.517923832E0,-1.557428241E0,7.766790390E0
1.340666207E1,1.656787634E0,-1.436521053E0,7.818265438E0
1.341670826E1,2.504334927E0,-1.607706428E0,8.268375397E0
1.342671219E1,2.590526342E0,-1.993172884E0,8.983044624E0
1.343668223E1,2.667140722E0,-2.640804529E0,9.903614998E0
1.344672876E1,2.671929121E0,-3.232172251E0,1.148378849E1
1.345667761E1,2.972401381E0,-3.628412724E0,1.301368332E1
1.346671592E1,3.296815634E0,-3.550601006E0,1.418564510E1
1.347667042E1,3.643975019E0,-3.341108561E0,1.470877838E1
1.348667423E1,3.722983599E0,-3.338714361E0,1.459385681E1
1.349666242E1,3.982754469E0,-3.137601376E0,1.437598419E1
1.350673003E1,3.994725466E0,-2.910152197E0,1.328781986E1
1.351671384E1,3.063380957E0,-3.222595453E0,1.277306652E1
1.352672523E1,2.517503023E0,-3.608062029E0,1.286284828E1
1.353672123E1,3.226186752E0,-4.232948780E0,1.235767174E1
1.354666365E1,4.016273499E0,-5.120000362E0,1.174954510E1
1.355669330E1,4.786009312E0,-5.348646641E0,1.095107841E1
1.356666615E1,5.092466831E0,-4.622006416E0,1.067574501E1
1.357666461E1,4.296394825E0,-3.415328741E0,1.151611042E1
1.358668573E1,2.792836189E0,-2.675520420E0,1.226070690E1
1.359668080E1,1.540668845E0,-2.626439333E0,1.259469795E1
1.360673373E1,1.132457376E0,-2.815581083E0,1.163103199E1
1.361666961E1,1.185129881E0,-2.742558002E0,1.031422138E1
1.362667596E1,9.253589511E-1,-2.396595955E0,1.169567490E1
1.363671600E1,1.367089152E0,-2.291250944E0,1.347217274E1
1.364672300E1,1.302445769E0,-2.706645012E0,1.340872669E1
1.365667300E1,9.576807022E-1,-2.721010208E0,1.341471195E1
1.366672588E1,8.750807047E-1,-2.456450939E0,1.476863289E1
1.367666723E1,1.544260144E0,-1.995567083E0,1.577419758E1
1.368666684E1,1.993172884E0,-1.698686123E0,1.501523590E1
1.369665973E1,2.044648170E0,-1.595735431E0,1.426345634E1
1.370666434E1,2.059013367E0,-1.799242616E0,1.373433781E1
1.371665815E1,1.189918280E0,-2.193088770E0,1.451005936E1
1.372672261E1,-2.214636505E-1,-2.057816267E0,1.574187660E1
1.373666376E1,-1.714248419E0,-2.092532396E0,1.644098282E1
1.374666892E1,-1.865083098E0,-2.244564056E0,1.695214462E1
1.375670538E1,-5.698199868E-1,-1.890222192E0,1.730409241E1
1.376668850E1,3.471592367E-1,-1.385045648E0,1.797566605E1
1.377667580E1,4.309563041E-1,-1.175553083E0,1.763329506E1
1.378666142E1,-1.424549967E-1,-1.751358509E0,1.631169701E1
1.379671673E1,-1.139639974E0,-2.541445017E0,1.562096882E1
1.380677650E1,-1.434126854E0,-2.213439465E0,1.686595345E1
1.381669588E1,-5.877765417E-1,-1.357512355E0,1.850598145E1
1.382667623E1,1.001973391E0,-5.793967843E-1,1.794573975E1
1.383670680E1,2.421735048E0,-1.209071875E-1,1.574666500E1
1.384667461E1,2.861071110E0,7.038952708E-1,1.370201588E1
1.385667334E1,2.825158119E0,1.024718285E0,1.310107136E1
1.386671296E1,2.791639090E0,8.379706144E-1,1.338837624E1
1.387666903E1,2.612074137E0,5.171475410E-1,1.395340729E1
1.388671369E1,2.349909067E0,1.054645896E0,1.398932076E1
1.389667223E1,2.214636564E0,1.657984734E0,1.249892998E1
1.390666657E1,2.427720547E0,1.977610588E0,1.013465595E1
1.391670942E1,2.767697096E0,3.013102770E0,6.151901245E0
1.392667373E1,2.917334795E0,4.127603531E0,4.438849926E0
1.393672496E1,2.995146275E0,4.589684486E0,5.558139324E0
1.394667076E1,3.637989521E0,4.693832397E0,7.058106422E0
1.395673846E1,3.165134668E0,4.495113850E0,8.816647530E0
1.396673896E1,2.838326216E0,3.685873508E0,8.588001251E0
1.397672250E1,2.748543501E0,3.122039080E0,1.150174522E1
1.398671523E1,2.133233786E0,3.168725967E0,1.251568985E1
1.399671350E1,2.019509077E0,2.813186884E0,1.212423706E1
1.400673157E1,1.037886381E0,2.363077164E0,9.375694275E0
1.401669238E1,-6.536170840E-1,2.054224968E0,4.527435303E0
1.402667484E1,-1.938106298E0,1.929726601E0,1.337161660E0
1.403683053E1,-2.029085875E0,1.968033791E0,-5.626374111E-2
1.404672138E1,-2.779668093E0,2.291250944E0,1.197100850E-3
1.405666988E1,-2.785653591E0,1.906981707E0,2.070984542E-1
1.406671700E1,-1.966836691E0,2.343923569E0,1.206677675E0
1.407671373E1,-1.013944387E0,3.107673883E0,2.772485495E0
1.408672246E1,1.699883193E-1,4.356249809E0,4.528632641E0
1.409672576E1,2.667140722E0,5.161899090E0,7.126341343E0
1.410667480E1,4.091690540E0,5.391742229E0,1.049139214E1
1.411666511E1,4.780023575E0,5.355829239E0,1.514811420E1
1.412672557E1,4.114435673E0,4.838681698E0,1.604474258E1
1.413667388E1,1.805228114E0,3.991134167E0,1.458188534E1
1.414668415E1,2.992752194E-2,3.414131641E0,1.380257320E1
1.415673680E1,-1.025915384E0,3.323152065E0,1.262701988E1
1.416733334E1,-1.417367458E0,3.213018656E0,9.771934509E0
1.417673965E1,-2.561795712E-1,3.931279182E0,5.093664169E0
1.418666184E1,1.228225470E0,4.484339714E0,1.025915384E0
1.419672219E1,9.085995555E-1,4.109647274E0,-1.350329757E0
1.420669026E1,-1.078587890E0,3.402160645E0,-2.190694571E0
1.421665653E1,-2.820369720E0,2.115277290E0,-2.018311977E0
1.422664830E1,-2.936488390E0,2.416946650E0,-6.811503768E-1
1.423669215E1,-2.280477047E0,4.200626850E0,1.510741234E0
1.424664246E1,-1.176750183E0,5.476736546E0,3.836708307E0
1.425669357E1,6.464344859E-1,6.864176273E0,5.849034786E0
1.426665053E1,1.939303398E0,7.031770229E0,6.669048786E0
1.427664546E1,1.380257249E0,6.782773495E0,6.587646008E0
1.428664488E1,4.764461517E-1,6.291962147E0,4.575319290E0
1.429664250E1,-8.319851160E-1,2.806004286E0,7.745242715E-1
1.430669157E1,-1.532289028E0,2.234987259E0,-6.572083831E-1
1.431664403E1,-2.096123695E0,3.296815634E0,-1.276109457E0
1.432669607E1,-2.085349798E0,4.946420670E0,-1.430535555E0
1.433664572E1,-1.491587639E0,5.634753704E0,-9.157821536E-1
1.434664253E1,-1.988384485E0,5.556941986E0,1.037886381E0
1.435666296E1,-2.674323320E0,5.163095951E0,2.967612982E0
1.436666926E1,-1.525106430E0,4.116829872E0,3.833117008E0
1.437673015E1,-8.020575345E-2,4.378994942E0,3.400963545E0
1.438668042E1,8.798691034E-1,5.487510204E0,3.300406933E0
1.439667703E1,4.333505034E-1,5.710171223E0,3.954024076E0
1.440669734E1,6.943184882E-2,5.307945251E0,4.581305027E0
1.441668165E1,-3.651157618E-1,5.137956619E0,4.671087742E0
1.442666761E1,-1.039083481E0,5.102043629E0,3.506308317E0
1.443666838E1,-9.385270476E-1,5.737704277E0,3.818751574E-1
1.444666826E1,2.525882721E-1,6.598419666E0,-1.540668845E0
1.445668919E1,1.403002143E0,7.115567684E0,-5.279214978E-1
1.446760873E1,1.744175911E0,7.773972988E0,1.502361536E0
1.447666972E1,1.163581967E0,7.951143742E0,3.044227362E0
1.448666961E1,3.699041605E-1,7.912836552E0,3.867832899E0
1.449667573E1,-2.082955539E-1,8.517372131E0,4.171896458E0
1.450694915E1,2.106897533E-1,8.458714485E0,2.869450808E0
1.451667042E1,5.566518903E-1,7.860164165E0,1.532289088E-1
1.452669438E1,4.189853072E-1,7.316680431E0,-1.399410844E0
1.453667265E1,2.142810524E-1,7.301117897E0,-4.656722248E-1
1.454667092E1,4.489128292E-1,7.407660007E0,1.572990537E0
1.455669453E1,6.727706790E-1,7.454347134E0,3.052607059E0
1.456667096E1,8.128314614E-1,7.826645374E0,3.843890905E0
1.457675780E1,4.752490520E-1,8.732851028E0,3.731363297E0
1.458668215E1,9.780313969E-1,8.797493935E0,2.644395828E0
1.459667403E1,9.540894032E-1,8.353369713E0,1.549048543E0
1.460669288E1,8.990227580E-1,8.248024940E0,-3.256114423E-1
1.461669038E1,1.533486247E0,8.277952194E0,-1.337161660E0
1.462666634E1,1.365892053E0,8.210914612E0,-2.242169857E0
1.463667046E1,7.098808289E-1,7.809885979E0,-1.857900500E0
1.464667223E1,-7.900865376E-2,7.536946774E0,-6.272808313E-1
1.465674119E1,-7.206547260E-1,7.399280548E0,8.463503122E-1
1.466669111E1,-1.023521185E0,7.507019520E0,1.978807688E0
1.467666530E1,-1.143231273E0,7.143100739E0,3.477577925E0
1.468665807E1,-1.340752959E0,6.803123951E0,5.045780182E0
1.469667123E1,-1.456871748E0,6.736086369E0,5.570110321E0
1.470673130E1,-1.083376288E0,6.550535679E0,5.008669853E0
1.471671315E1,-5.051765442E-1,6.827065945E0,2.970007181E0
1.472673719E1,-1.831564307E-1,7.455543995E0,7.912836671E-1
1.473672665E1,3.112462163E-2,7.468712330E0,-8.487445116E-1
1.474672365E1,4.548983276E-2,6.833051682E0,-1.332373261E0
1.475667176E1,-5.398924947E-1,6.330269337E0,-6.655880809E-1
1.476671807E1,-6.715735793E-1,6.320692539E0,8.319851160E-1
1.477675184E1,-1.077390760E-1,6.734889507E0,2.407369852E0
1.478668553E1,1.005564705E-1,7.529764175E0,3.554192305E0
1.479668003E1,5.805938840E-1,8.033743858E0,4.007893562E0
1.480669957E1,1.168370485E0,8.259995461E0,3.695450306E0
1.481673007E1,1.662773132E0,8.508993149E0,2.952050686E0
1.482667480E1,1.825578809E0,8.118738174E0,1.625662923E0
1.483666838E1,1.441309452E0,7.444770336E0,-2.442085743E-1
1.484668792E1,1.059434295E0,7.056909561E0,-2.106897593E0
1.485745984E1,9.684545994E-1,6.831854343E0,-3.192667961E0
1.486666569E1,1.052251697E0,6.762422562E0,-3.591302633E0
1.487665626E1,5.913678408E-1,7.158663273E0,-2.865859509E0
1.488665176E1,3.579331636E-1,7.577648163E0,-1.125274777E0
1.489664273E1,5.518634915E-1,7.608773232E0,1.195903778E0
1.490664876E1,4.740519226E-1,7.602787495E0,3.263296843E0
1.491668192E1,1.939303428E-1,8.015787125E0,4.674678802E0
1.492668080E1,2.681505978E-1,8.033743858E0,5.012261391E0
1.493664565E1,2.669534981E-1,7.422025204E0,4.763264179E0
1.494665007E1,1.357512355E0,6.580463409E0,1.222239971E0
1.495664765E1,1.978807688E0,6.448782444E0,-1.144428372E0
1.496668049E1,1.438915253E0,6.815094948E0,-2.792836189E0
1.497666426E1,8.978256583E-1,7.717709064E0,-3.315969467E0
1.498664557E1,1.159990668E0,7.966706276E0,-2.201468468E0
1.499664396E1,7.900865674E-1,7.566874504E0,-6.584054977E-2
1.500669869E1,2.346317619E-1,6.574477673E0,1.053448796E0
1.501667823E1,-2.932897210E-1,5.778405666E0,8.044517636E-1
1.502668146E1,1.376665980E-1,5.133168221E0,1.089361757E-1
1.503667772E1,1.292868853E-1,5.444414616E0,-5.494692922E-1
1.504667907E1,-2.466027737E-1,6.430825710E0,-5.997475386E-1
1.505673476E1,5.147533491E-2,6.812700748E0,6.919242740E-1
1.506667272E1,5.686228871E-1,6.161478043E0,2.579752445E0
1.507672365E1,2.262520641E-1,5.701791286E0,3.463212729E0
1.508672046E1,-3.758896589E-1,5.869385242E0,3.444059134E0
1.509667938E1,2.992752194E-1,5.457582951E0,2.756923199E0
1.510670315E1,5.590460896E-1,4.825513363E0,1.571793437E0
1.511666607E1,1.352723986E-1,4.633977413E0,-7.074866295E-1
1.512667592E1,-3.998316824E-1,5.287594318E0,-3.351882458E0
1.513671780E1,-5.949591398E-1,5.436035156E0,-2.436100245E0
1.514674311E1,-9.313444495E-1,5.477933407E0,3.148375154E-1
1.515667496E1,-1.182735682E0,5.815515995E0,2.468421936E0
1.516671496E1,-6.212953329E-1,5.464765549E0,2.509123325E0
1.517670523E1,-5.171475410E-1,4.709394932E0,1.917755604E0
1.518671599E1,-5.973533392E-1,4.194641590E0,1.154005170E0
1.519674715E1,-6.045359373E-1,4.861426353E0,-8.140285611E-1
1.520670626E1,-4.860229492E-1,5.742492676E0,-2.685097218E0
1.521667280E1,-1.693897724E0,6.013037682E0,-3.169923067E0
1.522667665E1,-3.725377798E0,5.547365189E0,-2.018311977E0
1.523666642E1,-3.898957491E0,4.244919777E0,7.709329724E-1
1.524667857E1,-3.293224335E0,3.731363297E0,4.419696331E0
1.525673165E1,-2.839523315E0,4.468777657E0,6.491878033E0
1.526672765E1,-1.746570110E0,5.278017521E0,4.007893562E0
1.527666392E1,-1.956062794E0,5.761646271E0,2.183511972E0
1.528672169E1,-2.379836559E0,5.736507416E0,1.836352706E0
1.529665819E1,-3.090914488E0,4.851849556E0,3.232172251E0
1.530673119E1,-3.195062160E0,3.712209702E0,4.912901878E0
1.531666422E1,-2.838326216E0,3.430891037E0,6.466738701E0
1.532672507E1,-2.347514868E0,3.937264681E0,7.472303391E0
1.533666715E1,-2.159569979E0,4.894945145E0,7.322665691E0
1.534671726E1,-1.814804912E0,5.525817394E0,6.254851818E0
1.535672649E1,-1.401805043E0,5.340266705E0,4.702212334E0
1.536666138E1,-1.268926859E0,4.279635429E0,3.649960518E0
1.537667546E1,-2.024297476E0,2.725798607E0,2.632424831E0
1.538668880E1,-3.274070740E0,6.584054828E-1,1.361103654E0
1.539672980E1,-4.302380562E0,-1.033097982E0,1.240196466E0
1.540673172E1,-4.226963043E0,-1.719036818E0,2.742558002E0
1.541671573E1,-3.373430252E0,-1.883039594E0,6.427234650E0
1.542669819E1,-2.479195833E0,-1.167173386E0,1.094868469E1
1.543667123E1,1.173158810E-1,2.334346622E-1,1.319324875E1
1.544667465E1,1.191115379E0,1.612494826E0,1.296101093E1
1.545667826E1,3.579331636E-1,2.890998602E0,1.116655636E1
1.546669434E1,-1.053448766E-1,2.851494312E0,9.107542992E0
1.547666476E1,-4.656722248E-1,1.315613866E0,8.276755333E0
1.548671849E1,-1.482010841E0,4.632780254E-1,8.245630264E0
1.549672142E1,-1.704671621E0,4.800374508E-1,1.023042393E1
1.550673153E1,-2.868253708E0,1.771709204E0,1.296340466E1
1.551673788E1,-1.567005038E0,3.099294186E0,1.314536476E1
1.552668676E1,-5.243301988E-1,3.544615507E0,1.178904915E1
1.553666461E1,-8.367735147E-1,3.071760893E0,1.304839897E1
1.554672542E1,-2.814383984E0,1.818396211E0,1.634401703E1
1.555667526E1,-5.407304764E0,-2.035071515E-2,1.902791786E1
1.556684092E1,-2.139219284E0,3.854664862E-1,1.933317947E1
1.557666896E1,-2.139219284E0,3.854664862E-1,1.933317947E1
1.558671969E1,-2.070984542E-1,4.553771496E0,1.572152519E1
1.559674799E1,3.284844637E0,6.065710068E0,1.666603851E1
1.560666107E1,4.788403511E-1,5.816712856E0,1.720353699E1
1.561672292E1,-6.356605291E-1,3.068169594E0,1.876096535E1
1.562780738E1,-3.551798105E0,3.854664862E-1,2.095884132E1
1.563673484E1,-4.639962673E0,-1.747767210E0,2.245402145E1
1.564673080E1,-3.422511339E0,-3.003525972E0,2.426882553E1
1.565674299E1,-2.018311977E0,-1.622071624E0,2.371337128E1
1.566666380E1,-6.931213737E-1,4.656722248E-1,2.050992966E1
1.567666988E1,1.049857497E0,1.789665818E0,1.750640297E1
1.568671565E1,1.793257117E0,2.738966703E0,1.494340992E1
1.569671819E1,3.096899986E0,3.930082083E0,1.230499935E1
1.570670084E1,3.008314371E0,4.590881824E0,1.109832191E1
1.571667099E1,2.280477047E0,4.516661644E0,1.286643982E1
1.572673576E1,1.509544134E0,4.047398090E0,1.628176880E1
1.573666284E1,4.297592044E-1,3.295618534E0,1.869871521E1
1.574666515E1,-2.370259613E-1,2.276885748E0,1.932599640E1
1.575667419E1,-3.339911401E-1,1.042674899E0,1.914523315E1
1.576671749E1,-6.189011335E-1,3.830722719E-2,1.991616631E1
1.577668872E1,-8.200140595E-1,-3.986345828E-1,2.035430527E1
1.578671511E1,-8.906430602E-1,-2.154781483E-2,1.951753235E1
1.579666442E1,-6.189011335E-1,4.680664241E-1,1.791341782E1
1.580679072E1,1.244984865E-1,1.018732786E0,1.607227516E1
1.581671838E1,7.074866295E-1,1.723825216E0,1.357033539E1
1.582673949E1,7.553706169E-1,2.120065689E0,1.135210705E1
1.583666299E1,9.062053561E-1,2.693476915E0,1.016697788E1
1.584676188E1,9.145850539E-1,3.239354849E0,1.069011021E1
1.585667615E1,3.136404157E-1,2.996343374E0,1.129344940E1
1.586666811E1,-2.154781483E-2,2.243366957E0,1.149695683E1
1.587683365E1,1.759738177E-1,1.461660147E0,1.164659405E1
1.588668842E1,4.620809257E-1,6.093243361E-1,1.141435623E1
1.589667499E1,3.950432837E-1,8.379706182E-3,1.101332760E1
1.590668672E1,2.394201756E-1,1.065419763E-1,1.027351952E1
1.591672669E1,9.409212470E-1,7.038952708E-1,1.023760605E1
1.592666588E1,-1.795651205E-2,1.628057212E-1,1.076672459E1
1.593671349E1,-1.199495077E0,-5.674257874E-1,1.097023201E1
1.594667342E1,-1.601720929E0,-1.575384736E0,1.049857426E1
1.595672746E1,-1.575384736E0,-2.941276789E0,1.147181702E1
1.596666672E1,-1.296460271E0,-2.683900118E0,1.395101357E1
1.597666703E1,-7.230489254E-1,-2.518700123E0,1.366011810E1
1.598671742E1,7.302315235E-1,-1.831564307E0,1.195903778E1
1.599667819E1,1.578976035E0,-1.309628367E0,1.199135876E1
1.600667169E1,1.927332401E0,-1.819593310E-1,1.410424232E1
1.601671642E1,3.375824451E0,7.625532150E-1,1.455076122E1
1.602673719E1,4.458003521E0,8.535329103E-1,1.439394093E1
1.603668534E1,4.182670593E0,5.674257874E-1,1.457949162E1
1.604666638E1,2.640804529E0,-8.499415964E-2,1.386841297E1
1.605671988E1,1.601720929E0,-8.032546639E-1,1.286045456E1
1.606671334E1,1.628057122E0,-1.069011092E0,1.256117916E1
1.607666919E1,1.698686123E0,-6.560112834E-1,1.216613579E1
1.608672811E1,1.248576164E0,-1.795651205E-2,1.151970100E1
1.609665926E1,1.063025594E0,3.280056417E-1,1.083615685E1
1.610671761E1,1.382651448E0,4.752490520E-1,1.065180302E1
1.611666661E1,1.405396342E0,1.783680320E-1,1.071764374E1
1.612670988E1,1.228225470E0,-3.375824392E-1,1.132936287E1
1.613665626E1,1.480813742E0,-5.566518903E-1,1.196861458E1
1.614674365E1,1.060631394E0,-7.613561153E-1,1.220085144E1
1.615666672E1,1.274912357E0,-1.576581836E0,1.272757626E1
1.616670211E1,1.683123827E0,-1.750161409E0,1.325190639E1
1.617665726E1,1.112106681E0,-1.326387763E0,1.317050362E1
1.618670549E1,1.663970202E-1,-9.074024558E-1,1.349731255E1
1.619667084E1,5.554547906E-1,-6.811503768E-1,1.370800209E1
1.620670849E1,6.117185354E-1,-7.362170219E-1,1.279940224E1
1.621665903E1,-4.896142483E-1,-1.151610970E0,1.187763500E1
1.622685311E1,5.135562420E-1,-2.413355350E0,1.122760868E1
1.623666776E1,2.658761024E0,-3.118447781E0,1.050336266E1
1.624666046E1,2.461239338E0,-2.366668463E0,1.170764637E1
1.625667119E1,4.055777550E0,-3.477577925E0,1.369722748E1
1.626667784E1,5.013458252E0,-4.622006416E0,1.700960541E1
1.627673284E1,4.934449673E0,-4.680664539E0,2.014840508E1
1.628667122E1,4.631583214E0,-4.979939461E0,2.105580711E1
1.629666461E1,3.902548790E0,-5.084087372E0,2.010530853E1
1.630671853E1,3.234566450E0,-4.431667328E0,1.718079185E1
1.631666368E1,2.311601639E0,-3.457227230E0,1.354519653E1
1.632667338E1,1.320402265E0,-2.790441990E0,1.061708736E1
1.633666611E1,1.935712099E0,-2.102109194E0,8.876502991E0
1.634667626E1,2.163161278E0,-1.325190663E0,8.098387718E0
1.635667192E1,1.503558636E0,-1.090558887E0,8.759186745E0
1.636666246E1,6.907271743E-1,-2.008735180E0,1.129225254E1
1.637666615E1,5.015852451E-1,-3.021482468E0,1.513374901E1
1.638671811E1,1.622071624E0,-3.551798105E0,1.722628212E1
1.639672772E1,3.149572372E0,-4.820724964E0,1.643499756E1
1.640666853E1,1.956062794E0,-3.731363297E0,1.709938812E1
1.641667726E1,2.096123695E0,-3.186682463E0,1.693897629E1
1.642668461E1,2.694674015E0,-3.805583715E0,1.572990513E1
1.643699380E1,3.438073635E0,-4.062960148E0,1.444661331E1
1.644668249E1,3.392583847E0,-3.507505417E0,1.400967121E1
1.645683534E1,3.684676409E0,-3.214215755E0,1.431852341E1
1.646671603E1,2.910152197E0,-2.947262287E0,1.500326538E1
1.647669153E1,3.739742994E0,-3.542221308E0,1.448851204E1
1.648667215E1,4.255693436E0,-3.793612480E0,1.340393829E1
1.649666007E1,3.766079187E0,-3.699041605E0,1.182256794E1
1.651385553E1,4.923676014E0,-3.341108561E0,8.671798706E0
1.652671130E1,5.442020416E0,-2.401384354E0,8.947132111E0
1.653666169E1,2.995146275E0,-7.936778665E-1,9.674968719E0
1.654673445E1,1.592144132E0,-2.980781198E-1,9.548076630E0
1.655668803E1,1.383848548E0,-1.027112484E0,8.049305916E0
1.656667449E1,-3.338714361E0,-2.333149672E0,7.441178799E0
1.657666999E1,-6.224924326E-1,-2.632424831E0,7.301117897E0
1.658671215E1,2.494758129E0,-1.483207941E0,8.145073891E0
1.659674330E1,5.008669853E0,2.274491638E-1,9.014169693E0
1.660673438E1,7.960720539E0,3.746925592E-1,9.464279175E0
1.661672949E1,7.420828342E0,1.053448766E-1,1.000656605E1
1.662667726E1,5.943605900E0,1.244984865E-1,9.323021889E0
1.663670445E1,4.253299236E0,-5.841852427E-1,7.595604897E0
1.664666849E1,1.599326730E0,-1.331176162E0,6.997054577E0
1.665666515E1,-1.669955730E0,-6.907271743E-1,7.222109318E0
1.666667238E1,-3.980360270E0,5.949591398E-1,7.054515362E0
1.667667872E1,-1.216254473E0,7.374141216E-1,6.270414352E0
1.668671280E1,7.374141216E-1,1.121683478E0,7.480683327E0
1.669667268E1,3.303998411E-1,-1.089361757E-1,9.068038940E0
1.670672818E1,1.005564705E-1,-1.956062794E0,8.793902397E0
1.671671680E1,-1.215057373E0,-2.890998602E0,8.828619003E0
1.672674188E1,-2.304419041E0,-2.996343374E0,9.878476143E0
1.673672711E1,3.351882473E-2,-1.398213744E0,1.369483376E1
1.674667103E1,2.828749418E0,1.223437071E0,1.814924622E1
1.675672526E1,1.768117905E0,1.567005038E0,1.355237865E1
1.676666503E1,-1.699883193E-1,1.387439847E0,9.798270226E0
1.677666565E1,3.794809580E-1,1.302445769E0,7.283161640E0
1.678670253E1,-1.113303825E-1,7.062895298E-1,6.005855083E0
1.679667707E1,-1.033097982E0,-8.259996027E-2,4.886565685E0
1.680666742E1,-1.233013868E0,-8.882488012E-1,4.520252705E0
1.681672857E1,-6.488286853E-1,-7.110779285E-1,5.990292549E0
1.682667742E1,-8.152256608E-1,-6.344634295E-2,8.309077263E0
1.683666138E1,-1.292868972E0,6.727706790E-1,9.545681953E0
1.684666499E1,-1.452083349E0,7.924807668E-1,8.444349289E0
1.685666895E1,-2.584540844E0,2.027888775E0,5.228936672E0
1.686666484E1,-6.751648784E-1,4.244919777E0,2.802412987E0
1.687672568E1,1.091755986E0,4.717774391E0,2.873042040E-2
1.688673176E1,-1.915361404E0,-1.027112484E0,9.923965931E-1
1.689668311E1,-1.954865694E0,-2.999934673E0,4.235342979E0
1.690666580E1,-6.895300746E-1,-3.466804028E0,8.182184219E0
1.691667945E1,1.161187813E-1,-2.554613113E0,9.625887871E0
1.692673095E1,8.152256608E-1,-1.106121182E0,8.372523308E0
1.693667595E1,3.998316824E-1,9.576806426E-2,5.550956726E0
1.694668880E1,-8.307880163E-1,1.904587507E0,2.707842112E0
1.695665826E1,-7.481880188E-1,3.177105665E0,1.382651448E0
1.696674172E1,-3.687070608E-1,2.280477047E0,1.203086376E0
1.697666749E1,-1.021126986E0,1.116895080E0,2.424129248E0
1.698671711E1,-1.626860023E0,4.740519226E-1,3.363853455E0
1.699671568E1,-1.332373261E0,6.703764945E-2,4.219780445E0
1.700666880E1,-1.158793569E0,-1.747767180E-1,5.412093163E0
1.701667403E1,-1.155202270E0,2.513911761E-2,6.023811340E0
1.702717095E1,-1.188721180E0,-1.280897856E-1,5.957971096E0
1.703804542E1,-1.661576033E0,-4.560954273E-1,5.413290024E0
1.704671130E1,-2.049436569E0,-3.974374831E-1,4.983530998E0
1.705669819E1,-1.768117905E0,1.999158412E-1,5.430049419E0
1.706666057E1,-1.238999367E0,3.734954596E-1,5.457582951E0
1.707671545E1,-1.031900883E0,5.494692922E-1,5.659893036E0
1.708670511E1,-5.686228871E-1,8.954314590E-1,6.200982571E0
1.709671776E1,-4.704606235E-1,1.017535686E0,6.659471989E0
1.710670880E1,-5.506663918E-1,1.383848548E0,6.752845764E0
1.711665618E1,-3.579331636E-1,2.078166962E0,6.454767704E0
1.712666430E1,-9.552865028E-1,2.161964178E0,6.075286865E0
1.713667903E1,-2.152387381E0,2.051830769E0,5.590460777E0
1.714669099E1,-2.780865192E0,2.219424963E0,6.011840343E0
1.715666307E1,-2.439691544E0,1.511938334E0,6.701370716E0
1.716667188E1,-2.904166698E0,7.769184709E-1,7.256825447E0
1.717674342E1,-2.829946518E0,8.092401624E-1,8.076839447E0
1.718667634E1,-1.999158382E0,1.069011092E0,8.312667847E0
1.719673276E1,-1.804031014E0,8.918401599E-1,8.347384453E0
1.720665892E1,-1.963245392E0,1.517923832E0,9.276334763E0
1.721675249E1,-1.346738458E0,3.552995205E0,7.274781704E0
1.722667461E1,-1.825578809E0,3.651157618E0,6.321889400E0
1.723666938E1,-1.672349930E0,3.573346138E0,6.637924194E0
1.724673634E1,-2.108094692E0,3.238157749E0,7.145494938E0
1.725666449E1,-2.630030632E0,2.772485495E0,7.896077156E0
1.726666407E1,-2.074575663E0,2.340332270E0,8.336610794E0
1.727674045E1,-1.438915253E0,1.841141105E0,8.464699745E0
1.728672126E1,-1.138442874E0,1.660378933E0,9.449913979E0
1.729674068E1,-1.005564705E-1,2.270900249E0,9.393650055E0
1.730667157E1,-1.065419763E-1,2.779668093E0,8.603564262E0
1.731672476E1,-8.619126081E-1,2.649184227E0,8.559270859E0
1.732674499E1,-1.254561663E0,2.644395828E0,8.388085365E0
1.733671742E1,-1.617283225E0,2.625242233E0,7.721300602E0
1.734667688E1,-2.433706045E0,1.929726601E0,7.472303391E0
1.735667934E1,-2.686294317E0,1.247379065E0,8.441955566E0
1.736665299E1,-2.323572636E0,1.553836942E0,9.273940086E0
1.737667676E1,-2.408566952E0,2.644395828E0,7.982268333E0
1.738665084E1,-1.668758631E0,3.390189648E0,6.774393559E0
1.739666695E1,-9.145850539E-1,3.272873640E0,7.534552574E0
1.740665688E1,-8.858546019E-1,2.940079689E0,8.680178642E0
1.741670553E1,-9.349357486E-1,2.819172382E0,8.665813446E0
1.742666230E1,-9.241618514E-1,2.926911592E0,8.186972618E0
1.743664992E1,-1.163581967E0,2.712630510E0,7.392097950E0
1.744664619E1,-1.742978811E0,2.460042238E0,6.944382191E0
1.745664792E1,-1.516726732E0,2.134430885E0,7.388506413E0
1.746664284E1,-1.205480576E0,1.555034041E0,8.052897453E0
1.747664857E1,-1.626860023E0,1.485602140E0,7.827842236E0
1.748664368E1,-1.933317900E0,1.759738207E0,7.048529625E0
1.749665692E1,-1.923741102E0,1.830367208E0,7.249642849E0
1.750666465E1,-1.821987510E0,2.090138197E0,7.979874134E0
1.751667353E1,-1.449689150E0,2.217030764E0,8.264783859E0
1.752673215E1,-1.177947283E0,1.984793186E0,7.580042362E0
1.753711388E1,-1.233013868E0,9.816226959E-1,5.695806026E0
1.754667522E1,-7.254431248E-1,4.309563041E-1,5.723339081E0
1.755671357E1,-3.232172430E-1,-8.379705995E-2,6.324283600E0
1.756671492E1,-4.752490520E-1,-4.716577232E-1,7.046135426E0
1.757673288E1,-9.708487988E-1,-6.344634295E-1,7.639897823E0
1.758675545E1,-1.151610970E0,-8.391677141E-1,7.327454090E0
1.759667034E1,-1.440112352E0,-5.458779931E-1,6.290764809E0
1.760666530E1,-1.997961283E0,-5.027823523E-2,5.692214489E0
1.761667749E1,-2.051830769E0,2.154781483E-2,5.738901615E0
1.762671988E1,-1.399410844E0,1.831564307E-1,5.871779442E0
1.763667138E1,-1.549048543E0,6.703764945E-2,5.840654850E0
1.764672145E1,-1.729810715E0,-5.159504414E-1,6.065710068E0
1.765670976E1,-1.315613866E0,-5.961562395E-1,6.629544735E0
1.766673999E1,-1.434126854E0,3.148375154E-1,6.941987991E0
1.767667142E1,-1.256955862E0,1.412579060E0,6.014234543E0
1.768671772E1,-8.918401599E-1,2.272097349E0,5.238513470E0
1.769732303E1,-8.092401624E-1,2.864662409E0,4.817133904E0
1.770672288E1,-7.649474144E-1,2.869450808E0,4.307168961E0
1.771671718E1,-1.531091928E0,2.117671490E0,3.906140089E0
1.772674492E1,-2.264914751E0,1.298854470E0,4.593276024E0
1.773673718E1,-2.486378431E0,1.221042871E0,5.922058105E0
1.774674230E1,-2.603694439E0,1.133654475E0,6.309918404E0
1.775671134E1,-2.840720415E0,1.406593442E0,6.904877663E0
1.776671538E1,-1.855506301E0,2.268506050E0,7.773972988E0
1.777669488E1,4.548983276E-2,3.155557871E0,7.757213593E0
1.778671149E1,1.100135684E0,3.690661907E0,7.490260124E0
1.779666599E1,1.149216771E0,3.576937437E0,8.192957878E0
1.780671730E1,7.086837292E-1,2.656366825E0,9.251194954E0
1.781668680E1,-7.278373241E-1,2.025494576E0,9.641449928E0
1.782672480E1,-2.317587137E0,2.394201756E0,8.354566574E0
1.783671399E1,-2.783259392E0,3.538630009E0,6.121973515E0
1.784666730E1,-1.887827992E0,4.332307816E0,4.497508049E0
1.785667068E1,-1.046266198E0,4.519055843E0,6.700173378E0
1.786668072E1,-5.949591398E-1,5.173870087E0,7.041347027E0
1.787666457E1,-1.508347034E0,4.811148167E0,7.479485989E0
1.788666503E1,-2.191891670E0,4.667496204E0,7.088034153E0
1.789674265E1,-1.918952703E0,5.306747913E0,5.799953461E0
1.790667499E1,-1.969230890E0,5.907692909E0,4.613626480E0
1.791671880E1,-1.229422569E0,5.928043365E0,3.739742994E0
1.792673557E1,8.032546639E-1,5.153519154E0,3.574543238E0
1.793667249E1,1.155202270E0,3.521870613E0,5.106832027E0
1.794669438E1,-7.864952683E-1,2.329558372E0,6.879738808E0
1.795672780E1,-3.111265182E0,2.090138197E0,7.674613476E0
1.796666442E1,-3.906140089E0,1.843535304E0,7.881711960E0
1.797673699E1,-4.896142483E0,1.484405041E0,7.972691536E0
1.798672384E1,-4.838681698E0,1.568202138E0,6.636727333E0
1.799673261E1,-2.622848034E0,2.191891670E0,4.812345505E0
1.800665849E1,3.483563364E-1,2.398990154E0,4.734533787E0
1.801672192E1,1.620874524E0,1.710657120E0,5.840654850E0
1.802666499E1,1.734599113E0,5.650315881E-1,6.898892403E0
1.803666338E1,1.502361536E0,1.017535701E-1,7.905653954E0
1.804670018E1,4.680664241E-1,5.291185975E-1,8.704120636E0
1.805665676E1,-1.352723956E0,9.876081944E-1,8.892065048E0
1.806674545E1,-2.899378300E0,1.476025343E0,7.778761387E0
1.807673265E1,-3.788824081E0,1.964442492E0,5.908889771E0
1.808666615E1,-3.502717018E0,1.723825216E0,4.504690647E0
1.809669268E1,-1.482010841E0,4.692635238E-1,4.426878929E0
1.810672711E1,1.072602391E0,-5.686228871E-1,5.191826344E0
1.811666553E1,3.153163671E0,-7.314286232E-1,6.767210960E0
1.812672742E1,3.178302765E0,-8.140286058E-2,9.093177795E0
1.813671411E1,2.855085611E0,5.506663769E-2,1.069849014E1
1.814673861E1,2.393004656E0,-1.544260085E-1,1.142872143E1
1.815675192E1,1.206677675E0,-1.292868853E-1,1.093431950E1
1.816666765E1,1.575384736E0,-3.124433160E-1,9.813833237E0
1.817673784E1,1.795651317E0,-1.244984865E0,9.463082314E0
1.818673534E1,3.065775394E0,-2.732981205E0,1.192671585E1
1.819668026E1,3.863044500E0,-2.609679937E0,1.519719505E1
1.820667022E1,4.131195068E0,-3.770867586E0,1.857900429E1
1.821672945E1,4.382586002E0,-4.505887508E0,2.082955551E1
1.822672857E1,3.703830004E0,-3.587711334E0,2.186504745E1
1.823671903E1,3.318363667E0,-3.313575268E0,2.191891670E1
1.824669253E1,3.147178173E0,-3.422511339E0,2.136346245E1
1.825671257E1,2.348711967E0,-2.954444885E0,2.158253098E1
1.826673030E1,2.608482838E0,-2.539050817E0,2.262999535E1
1.827667607E1,2.565387011E0,-2.797624588E0,2.244444466E1
1.828666949E1,1.570596337E0,-2.845508814E0,2.147239876E1
1.829676776E1,4.477157295E-1,-2.796427488E0,2.036867142E1
1.830673195E1,-7.565677166E-1,-2.974795580E0,1.836951256E1
1.831667738E1,-1.302445769E0,-3.020285368E0,1.547372532E1
1.832666526E1,-2.789244950E-1,-2.630030632E0,1.361821938E1
1.833670999E1,9.516952038E-1,-1.369483352E0,1.273356152E1
1.834673718E1,2.014720678E0,-6.811503768E-1,1.239957047E1
1.835671761E1,2.673126221E0,-4.908113480E-1,1.279820538E1
1.836666468E1,3.190273762E0,-3.315969408E-1,1.430655193E1
1.837673045E1,3.416525841E0,-9.696517140E-2,1.586757183E1
1.838667784E1,2.948459387E0,1.316810995E-1,1.657146645E1
1.839667230E1,2.752134800E0,2.681505978E-1,1.674744034E1
1.840667142E1,3.221398354E0,3.794809580E-1,1.679771996E1
1.841667414E1,3.445256233E0,4.608838260E-1,1.596214294E1
1.842667653E1,3.169923067E0,3.770867586E-1,1.455914021E1
1.843670253E1,3.230975151E0,2.154781520E-1,1.345421600E1
1.844666768E1,3.865438700E0,1.795651317E-1,1.319683933E1
1.845666295E1,3.734954596E0,5.626374111E-2,1.271680260E1
1.846666711E1,3.415328741E0,8.499415964E-2,1.180700588E1
1.847667518E1,3.338714361E0,1.556231081E-2,1.076552773E1
1.848666676E1,3.594893932E0,1.244984865E-1,1.010592556E1
1.849673461E1,3.767276287E0,3.148375154E-1,1.056082344E1
1.850668549E1,4.200626850E0,3.028665185E-1,1.256836224E1
1.851668511E1,3.994725466E0,-1.556231081E-2,1.244745445E1
1.852666992E1,3.037044764E0,-1.520318091E-1,1.158075333E1
1.853666484E1,2.115277290E0,-5.063736439E-1,1.082418633E1
1.854668084E1,1.626860023E0,-9.564836025E-1,1.074038887E1
1.855672803E1,1.479616642E0,-1.033097982E0,1.109832191E1
1.856666053E1,9.588778019E-1,-1.009155989E0,1.110789871E1
1.857673730E1,3.172317147E-1,-1.294066072E0,1.094509315E1
1.858667661E1,2.142810524E-1,-1.333570361E0,1.072961521E1
1.859667349E1,3.567360640E-1,-9.672574997E-1,1.080263805E1
1.860667272E1,3.722983599E-1,-6.105214357E-1,1.137006378E1
1.861666868E1,3.818751574E-1,-6.703764796E-1,1.175672722E1
1.862673099E1,4.094084799E-1,-9.050082564E-1,1.166933918E1
1.863672464E1,9.169792533E-1,-1.055842996E0,1.149216843E1
1.864667892E1,1.725022316E0,-6.607996821E-1,1.156279755E1
1.865665972E1,1.874659896E0,-3.064578176E-1,1.146104336E1
1.866672061E1,1.565807939E0,-2.597708702E-1,1.145864964E1
1.867672215E1,1.772906303E0,-2.561795712E-1,1.139640045E1
1.868666776E1,2.126051188E0,-2.059013397E-1,1.087446404E1
1.869673076E1,1.711854219E0,-3.196259141E-1,1.044709873E1
1.870667734E1,1.089361787E0,-7.194576263E-1,1.029386997E1
1.871666530E1,8.140285611E-1,-1.118092179E0,1.046864700E1
1.872666330E1,1.108515382E0,-1.334767461E0,1.103367901E1
1.873671241E1,1.905784607E0,-1.309628367E0,1.135929012E1
1.874673745E1,3.900154591E0,-3.232172430E-1,1.062666416E1
1.875668349E1,2.760514498E0,-4.177882075E-1,1.111627865E1
1.876667930E1,2.104503393E0,-1.777694821E0,1.174236202E1
1.877672407E1,2.744952202E0,-3.069366693E0,1.203325748E1
1.878667634E1,3.005920172E0,-3.318363667E0,1.185010147E1
1.879668611E1,2.224213362E0,-3.260902643E0,1.230499935E1
1.880672564E1,1.816002011E0,-3.295618534E0,1.337999630E1
1.881671472E1,1.865083098E0,-3.306392431E0,1.433049393E1
1.882672176E1,2.262520552E0,-3.357867956E0,1.478778648E1
1.883671849E1,3.895366192E0,-3.259705544E0,1.531570816E1
1.884666803E1,4.396951199E0,-2.808398485E0,1.524986744E1
1.885673161E1,4.046200752E0,-2.713827610E0,1.445020390E1
1.886667149E1,3.465606928E0,-3.003525972E0,1.373314095E1
1.887686845E1,2.829946518E0,-3.473986626E0,1.377863121E1
1.888666388E1,2.139219284E0,-3.948038578E0,1.472314358E1
1.889666861E1,2.243366957E0,-4.413711071E0,1.590707588E1
1.890671268E1,2.474407434E0,-4.420893669E0,1.669237518E1
1.891671807E1,2.240972757E0,-4.450820923E0,1.652478027E1
1.892671718E1,2.118868589E0,-4.447229862E0,1.569638634E1
1.893671691E1,1.939303398E0,-3.805583715E0,1.462138939E1
1.894673126E1,2.045845270E0,-2.888604403E0,1.402283955E1
1.895666545E1,2.615665436E0,-2.598906040E0,1.425627422E1
1.896673780E1,2.740163803E0,-2.931699991E0,1.583644676E1
1.897672568E1,2.947262287E0,-3.099294186E0,1.735317421E1
1.898674622E1,3.632004023E0,-3.191470861E0,1.864005661E1
1.899666822E1,3.374627352E0,-3.281253338E0,1.863886070E1
1.900670968E1,3.192667961E0,-2.907757998E0,1.680969048E1
1.901671349E1,2.768894196E0,-2.591723442E0,1.516008472E1
1.902667188E1,3.014299870E0,-2.718616009E0,1.466209126E1
1.903667045E1,2.363077164E0,-2.780865192E0,1.554315758E1
1.904666407E1,1.004367590E0,-3.557783842E0,1.582447624E1
1.905666391E1,-4.321534038E-1,-4.302380562E0,1.497453499E1
1.906667041E1,-8.846575022E-1,-4.748898983E0,1.355956173E1
1.907667288E1,-3.914519846E-1,-4.405331135E0,1.233492756E1
1.908665907E1,1.790862918E0,-4.334702015E0,1.130661774E1
1.909667922E1,2.446874142E0,-4.005499363E0,1.131379986E1
1.910667088E1,1.181538582E0,-3.573346138E0,1.299931812E1
1.911666488E1,9.325415492E-1,-3.045424461E0,1.402164268E1
1.912666938E1,3.294421434E0,-3.354276657E0,1.474110031E1
1.913671118E1,3.362656355E0,-3.142389774E0,1.529416084E1
1.914673461E1,2.404975653E0,-2.873042107E0,1.549527359E1
1.915668118E1,3.548206806E0,-3.550601006E0,1.476145077E1
1.916668972E1,2.643198729E0,-3.429693937E0,1.304480839E1
1.917669207E1,1.304839969E0,-3.019088268E0,1.045428181E1
1.918668765E1,6.871358752E-1,-2.960430384E0,8.698134422E0
1.919673964E1,3.002328873E0,-2.971204281E0,7.509413719E0
1.920673565E1,3.573346138E0,-2.074575663E0,6.345831394E0
1.921666595E1,3.171120167E0,-2.595314741E0,6.408081055E0
1.922676191E1,2.452859640E0,-3.766079187E0,8.438364029E0
1.923667999E1,-4.584896266E-1,-3.371036053E0,1.231218243E1
1.924668611E1,-5.422866940E-1,-2.882618904E0,1.329500198E1
1.925666672E1,6.057330370E-1,-3.106476784E0,1.191115379E1
1.926672438E1,4.333505034E-1,-3.442862034E0,1.046625233E1
1.927668057E1,-4.644751251E-1,-2.905363798E0,9.843760490E0
1.928672203E1,-4.944026470E-1,-2.043451071E0,9.149441719E0
1.929667153E1,-9.433154464E-1,-1.731007814E0,8.179790497E0
1.930666845E1,-2.501940727E0,-2.298433542E0,7.152677536E0
1.931667222E1,-2.996343374E0,-2.480392933E0,5.993884087E0
1.932666795E1,-7.254431248E-1,-2.474407434E0,5.880159378E0
1.933666622E1,1.371877551E0,-2.284068346E0,6.578069210E0
1.934667449E1,2.249352455E0,-1.750161409E0,7.903259754E0
1.935672211E1,3.357867956E0,-1.677138329E0,9.317035675E0
1.936666261E1,3.637989521E0,-1.638831019E0,1.051892471E1
1.937671126E1,3.056198359E0,-6.847416759E-1,1.115099430E1
1.938667261E1,2.782062292E0,4.046200812E-1,9.733627319E0
1.939673914E1,2.626439333E0,1.113303781E0,7.669825077E0
1.940676757E1,2.279279947E0,1.435323954E0,5.647922039E0
1.941672403E1,1.244984865E-1,1.551442742E0,4.559757233E0
1.942667064E1,-2.245761156E0,1.616086125E0,3.538630009E0
1.943667607E1,-3.274070740E0,1.419761658E0,2.438494444E0
1.944666972E1,-3.003525972E0,6.356605291E-1,1.616086125E0
1.945666022E1,-2.425326347E0,-9.457096457E-2,1.529894829E0
1.946666488E1,-2.182314873E0,-2.418143749E-1,4.015076160E0
1.947666718E1,-1.571793437E0,3.315969408E-1,7.126341343E0
1.948673072E1,8.738835901E-2,2.630030632E0,7.076063156E0
1.949666399E1,1.929726601E0,2.553416014E0,5.384559631E0
1.950666472E1,3.240551949E0,1.501164436E0,3.914519787E0
1.951669384E1,2.677914619E0,6.799532771E-1,3.046621561E0
1.952672768E1,1.449689150E0,5.446808934E-1,2.949656487E0
1.953671468E1,1.197100850E-3,1.508347094E-1,3.135207176E0
1.954675511E1,-1.125274777E0,-6.428431273E-1,3.338714361E0
1.955669630E1,-1.353921056E0,-1.171961784E0,3.922899485E0
1.956671618E1,-1.438915253E0,-1.003170490E0,4.941632271E0
1.957665872E1,-1.650802016E0,6.224924326E-2,5.840654850E0
1.958670903E1,-1.340752959E0,1.204283476E0,5.591658115E0
1.959667884E1,-1.250970364E0,1.722628117E0,4.115632534E0
1.960676988E1,-1.878251195E0,1.960851192E0,3.161543369E0
1.961670964E1,-1.731007814E0,2.750937700E0,2.744952202E0
1.962670084E1,-5.626373887E-1,2.867056608E0,2.695871115E0
1.963666703E1,7.661445439E-2,2.408566952E0,3.102885485E0
1.964667338E1,4.082113802E-1,2.098517895E0,3.539827108E0
1.965666780E1,9.169792533E-1,1.546654344E0,4.522646904E0
1.966666072E1,1.131260276E0,1.018732786E0,5.987898350E0
1.967665841E1,5.734112859E-1,8.164227605E-1,7.278373241E0
1.968667238E1,2.202665508E-1,1.252167463E0,8.616731644E0
1.969671668E1,1.508347094E-1,1.817199111E0,1.069489861E1
1.970666522E1,-3.986345828E-1,1.980004787E0,1.014782429E1
1.971666661E1,-6.596025825E-1,2.104503393E0,8.791508675E0
1.972667349E1,-8.236053586E-1,2.148796082E0,7.819462776E0
1.973666061E1,-1.611297727E0,2.037465572E0,7.272387505E0
1.974668111E1,-2.540247917E0,1.881842494E0,6.698976517E0
1.975674445E1,-2.626439333E0,2.135627985E0,6.894104004E0
1.976673364E1,-2.393004656E0,2.521094322E0,7.353790283E0
1.977665611E1,-1.900996208E0,3.292027235E0,7.077260017E0
1.978671588E1,-6.224924326E-1,3.632004023E0,6.451176643E0
1.979673841E1,3.268085420E-1,3.094505787E0,6.576871872E0
1.980672872E1,7.062894851E-2,2.711433411E0,6.707355976E0
1.981671880E1,-6.859387755E-1,2.262520552E0,7.387309551E0
1.982674514E1,-1.422155857E0,1.910573006E0,8.015787125E0
1.983668438E1,-1.980004787E0,1.984793186E0,7.821856976E0
1.984667949E1,-1.862688899E0,2.310404539E0,7.722497463E0
1.985665926E1,-1.211466074E0,2.427720547E0,8.062474251E0
1.986671518E1,-6.739677787E-1,2.594117641E0,8.183381081E0
1.987671649E1,-5.351040959E-1,2.961627483E0,7.848193169E0
1.988673349E1,-5.039794445E-1,3.116053581E0,7.337030888E0
1.989671826E1,-1.188721180E0,2.883816004E0,6.318298340E0
1.990671553E1,-1.562216640E0,2.722207308E0,5.731719017E0
1.991674541E1,-5.159504414E-1,2.847903013E0,6.348225594E0
1.992667968E1,3.232172430E-1,3.210624456E0,7.232883453E0
1.993672353E1,4.381389022E-1,3.420117140E0,7.978677273E0
1.994674264E1,3.315969408E-1,3.502717018E0,8.252813339E0
1.995667076E1,-4.094084799E-1,3.597288132E0,7.903259754E0
1.996674141E1,-1.055842996E0,3.726574898E0,7.164648533E0
1.997669326E1,-1.546654344E0,3.593696833E0,6.449979305E0
1.998667872E1,-1.884236693E0,3.356670856E0,6.361393929E0
1.999674884E1,-2.001552582E0,3.145981073E0,6.487089634E0
2.000672722E1,-1.521515131E0,2.979583979E0,6.783970356E0
2.001666707E1,-1.174355984E0,2.788047791E0,6.938396454E0
2.002666168E1,-1.466448545E0,2.138022184E0,7.096413612E0
2.003666884E1,-1.443703651E0,1.778891921E0,7.583633900E0
2.004667964E1,-7.829039693E-1,1.691503525E0,8.201337814E0
2.005671584E1,-4.537012279E-1,1.854309201E0,8.548497200E0
2.006672030E1,-2.968810201E-1,2.155978680E0,8.420407295E0
2.007666034E1,-1.915361360E-2,2.692279816E0,7.924807549E0
2.008673934E1,2.932897210E-1,3.092111588E0,7.516596317E0
2.009672841E1,1.197100803E-2,3.064578056E0,6.648698330E0
2.010665934E1,-7.194576263E-1,2.707842112E0,5.396530628E0
2.011674280E1,-1.474828243E0,2.102109194E0,5.074510574E0
2.012668768E1,-2.639607430E0,1.320402265E0,6.645106792E0
2.013672695E1,-3.331531763E0,1.334767461E0,6.645106792E0
2.014668995E1,-3.362656355E0,1.316810966E0,6.155492783E0
2.015666834E1,-2.794033289E0,1.416170359E0,5.887341976E0
2.016673768E1,-1.640028119E0,2.072181463E0,5.789179802E0
2.017674830E1,-2.825157940E-1,2.166752577E0,5.439626217E0
2.018667484E1,2.609679997E-1,1.545457244E0,4.961983204E0
2.019668864E1,2.789244950E-1,1.041477680E0,4.370615005E0
2.020667176E1,2.130839527E-1,1.052251697E0,4.568136692E0
2.021672807E1,3.866635859E-1,1.897404790E0,5.872976780E0
2.022671541E1,8.367735147E-1,2.219424963E0,7.321468830E0
2.023673122E1,9.014169574E-1,2.166752577E0,8.390480042E0
2.024667357E1,5.793967843E-1,2.861071110E0,8.712499619E0
2.025671568E1,1.699883193E-1,2.961627483E0,7.198167324E0
2.026671161E1,-1.074996591E0,1.655590534E0,4.769249916E0
2.027666084E1,-2.686294317E0,4.979939461E-1,3.136404276E0
2.028672614E1,-3.333925962E0,3.651157618E-1,3.065775394E0
2.029672599E1,-3.101688385E0,1.031900883E0,3.787626982E0
2.030671884E1,-2.346317768E0,1.595735431E0,4.535815239E0
2.031668880E1,-8.044517636E-1,2.014720678E0,5.365406036E0
2.032669891E1,4.596867263E-1,2.351106167E0,5.665878296E0
2.033668080E1,8.463503122E-1,1.847126603E0,5.376179695E0
2.034673249E1,9.205705523E-1,8.331822157E-1,5.801150799E0
2.035671949E1,8.200140595E-1,-7.781155407E-2,6.694188118E0
2.036682772E1,5.865794048E-2,-5.207388401E-1,7.475894928E0
2.037667553E1,-4.177882075E-1,8.140286058E-2,8.710105896E0
2.038668180E1,4.584896266E-1,8.403648138E-1,9.850942612E0
2.039673641E1,7.864952683E-1,1.377863050E0,9.533711433E0
2.040666434E1,-4.704606235E-1,1.781286120E0,8.139088631E0
2.041706868E1,-1.564610839E0,1.872265697E0,6.294356346E0
2.042666684E1,-1.590947032E0,1.927332401E0,4.542997837E0
2.043696222E1,-1.119289279E0,2.091335297E0,3.233369350E0
2.044731222E1,1.244984865E-1,1.902193308E0,3.148375273E0
2.045664249E1,8.104372621E-1,2.262520552E0,4.531026840E0
2.046665534E1,6.967126727E-1,2.389413357E0,5.900510311E0
2.047667853E1,9.576806426E-2,2.199074268E0,6.864176273E0
2.048667138E1,5.506663769E-2,2.039859772E0,7.110779285E0
2.049667118E1,5.207388401E-1,1.602918029E0,7.030573368E0
2.050664818E1,6.476315856E-1,1.007958889E0,6.734889507E0
2.051664926E1,5.303156972E-1,5.877765417E-1,6.755239964E0
2.052664445E1,6.895300746E-1,4.237737060E-1,7.752425194E0
2.053664476E1,1.403002143E0,3.244143426E-1,8.007407188E0
2.054665091E1,1.309628367E0,6.943184882E-2,7.357381821E0
2.055665057E1,9.756371975E-1,4.668693244E-2,7.412448406E0
2.056707768E1,3.148375154E-1,1.651999205E-1,7.088034153E0
2.057667684E1,-2.085349798E0,-8.499415964E-2,5.279214859E0
2.058667914E1,-3.992331266E0,-7.457938194E-1,3.933673382E0
2.059671960E1,-4.636371613E0,-1.883039594E0,3.051409960E0
2.060664245E1,-3.033453465E0,-3.453635931E0,3.318363667E0
2.061665118E1,-1.843535304E-1,-4.203021049E0,5.187037945E0
2.062668126E1,2.238578558E0,-3.925293684E0,8.491036415E0
2.063667591E1,4.279635429E0,-3.337517262E0,1.131260300E1
2.064669253E1,5.274426460E0,-2.122459888E0,1.348773575E1
2.065664261E1,4.691438198E0,-2.992752194E-1,1.251568985E1
2.066668284E1,3.981557369E0,1.149216771E0,7.881711960E0
2.067667491E1,2.243366957E0,2.327163935E0,4.481945515E0
2.068668253E1,9.935937077E-2,1.906981707E0,3.937264681E0
2.069665468E1,6.679822803E-1,-7.493851185E-1,5.432443619E0
2.070664580E1,1.444900751E0,-3.022679567E0,1.006522369E1
2.071664741E1,8.619126081E-1,-4.392162800E0,1.575743866E1
2.072668088E1,1.201889277E0,-5.904101372E0,1.859337044E1
2.073668261E1,8.020575345E-2,-6.457161903E0,2.003348351E1
2.074670057E1,-1.040280581E0,-5.969942093E0,1.939662552E1
2.075665230E1,-9.385270476E-1,-5.025429249E0,1.820790482E1
2.076665203E1,2.166752517E-1,-4.276044369E0,1.745372963E1
2.077664476E1,2.986766577E0,-2.104503393E0,1.546175480E1
2.078667768E1,3.549403906E0,-6.500257850E-1,1.223676491E1
2.079668660E1,3.957615376E0,-3.399766386E-1,1.424071217E1
2.080665249E1,3.798400879E0,-5.255272985E-1,2.104742622E1
2.081664760E1,4.535815239E0,-1.444900751E0,2.659359550E1
2.082667661E1,4.599261284E0,-2.304419041E0,2.994068909E1
2.083664187E1,2.463633537E0,-2.916137695E0,3.057515335E1
2.084670034E1,9.648633003E-1,-2.898181200E0,2.838206482E1
2.085664057E1,7.912836671E-1,-2.772485495E0,2.503496933E1
2.086672718E1,5.051765442E-1,-1.205480576E0,2.114080048E1
2.087670299E1,1.951274425E-1,5.626373887E-1,1.802235413E1
2.088672445E1,8.032546639E-1,1.490390539E0,1.554435444E1
2.089671764E1,6.236895323E-1,3.351882458E0,1.398453236E1
2.090666607E1,1.464054346E0,4.474762917E0,1.281017590E1
2.091667607E1,1.474828243E0,4.332307816E0,1.284249783E1
2.092671334E1,1.291671872E0,3.739742994E0,1.456273174E1
2.093673184E1,9.481038451E-1,3.021482468E0,1.630810547E1
