"Time (s)","Gyroscope x (rad/s)","Gyroscope y (rad/s)","Gyroscope z (rad/s)"
-7.579043000E-2,-3.274238110E-2,3.602069244E-2,3.239011168E-1
2.905574900E-2,-3.274238110E-2,3.602069244E-2,3.239011168E-1
8.647830000E-2,-3.803247213E-1,3.316794634E-1,4.155308902E-1
1.201913250E-1,-6.564357877E-1,6.902573705E-1,4.686761796E-1
1.420452990E-1,-8.592430353E-1,7.000312209E-1,4.625675380E-1
1.579561900E-1,-8.824558854E-1,1.978999823E-1,4.894455969E-1
1.709278860E-1,-7.682241201E-1,-3.341636658E-1,5.114367008E-1
1.824159450E-1,-6.197838783E-1,-6.389853954E-1,4.143091738E-1
1.931444750E-1,-4.450764358E-1,-6.176050901E-1,3.214576542E-1
2.035041240E-1,-3.259577155E-1,-3.647069037E-1,3.348966837E-1
2.136865060E-1,-2.398256958E-1,-2.755205929E-1,3.489466012E-1
2.237786200E-1,-1.274264902E-1,-4.422867894E-1,4.155308902E-1
2.338219470E-1,2.223549224E-2,-7.990320921E-1,4.650110006E-1
2.438459760E-1,1.486845911E-1,-1.215031385E0,3.684942722E-1
2.538767210E-1,1.694540083E-1,-1.362249851E0,1.864564419E-1
2.639674200E-1,5.705481023E-2,-1.174714208E0,-4.506149516E-2
2.739191350E-1,-7.977900654E-2,-1.072088957E0,-2.142711580E-1
2.841069160E-1,-1.341460049E-1,-1.331706643E0,-2.301536649E-1
2.941396140E-1,-8.344419301E-2,-1.725714684E0,-1.837279052E-1
3.042752510E-1,4.972442985E-2,-2.081849098E0,-1.373021454E-1
3.140707810E-1,2.287079394E-1,-2.373231649E0,-1.397456080E-1
3.239885080E-1,4.107457697E-1,-2.495404720E0,-1.684562713E-1
3.339487560E-1,6.245486736E-1,-2.482576609E0,-1.721214652E-1
3.439089380E-1,8.383514881E-1,-2.120944500E0,-1.715105921E-1
3.538856630E-1,8.554556966E-1,-1.318878412E0,-1.336369514E-1
3.638745640E-1,6.587570906E-1,-5.888944268E-1,-1.098132133E-1
3.738689380E-1,4.864930809E-1,-1.417410970E-1,-3.101159260E-2
3.838726830E-1,2.641381323E-1,2.412714064E-1,3.251839057E-2
3.938704200E-1,1.062905230E-2,4.025398195E-1,5.389867350E-2
4.038669040E-1,-2.331061810E-1,3.848247528E-1,7.283549756E-2
4.138657420E-1,-4.365243018E-1,2.534887195E-1,1.027678922E-1
4.238657000E-1,-5.043303370E-1,1.280780882E-2,1.058222204E-1
4.338838710E-1,-4.010941386E-1,-2.113797367E-1,6.917030364E-2
4.438925140E-1,-2.257758081E-1,-3.317202032E-1,1.174897235E-2
4.538926240E-1,-6.939429045E-2,-3.451592326E-1,-3.712024540E-2
4.638841990E-1,-8.894198388E-2,-2.999551892E-1,-6.399831921E-2
4.738759670E-1,-1.439198554E-1,-2.400904000E-1,-5.666793510E-2
4.838771390E-1,-2.221106142E-1,-1.111978292E-1,-1.879428886E-2
4.939030140E-1,-2.667037547E-1,2.441424876E-2,1.113810856E-2
5.038919700E-1,-2.648711801E-1,1.410895139E-1,1.969022304E-2
5.138902750E-1,-2.227214724E-1,2.278323770E-1,1.419243310E-2
5.238889280E-1,-1.353677362E-1,3.383989930E-1,2.213368192E-2
5.339131580E-1,7.574727759E-3,4.819523394E-1,5.023348331E-2
5.439269660E-1,2.091602534E-1,5.857994556E-1,9.055058658E-2
5.539106580E-1,3.661526144E-1,5.613648295E-1,1.302568316E-1
5.638992730E-1,4.235739410E-1,3.329012096E-1,1.033787578E-1
5.739213500E-1,4.107457697E-1,-4.907282069E-3,1.480329875E-2
5.839142730E-1,3.392745554E-1,-3.078964353E-1,-6.094399095E-2
5.939261770E-1,2.128254473E-1,-4.703865945E-1,-1.104240790E-1
6.039355130E-1,4.117231816E-2,-4.752735198E-1,-1.360804141E-1
6.139226430E-1,-1.402546614E-1,-2.804075181E-1,-1.073697507E-1
6.239294390E-1,-2.929709852E-1,8.916597068E-2,3.807724454E-3
6.339360870E-1,-4.072027802E-1,4.459112585E-1,1.430850029E-1
6.439385260E-1,-4.566828609E-1,5.851885676E-1,2.432669103E-1
6.539418420E-1,-4.517959356E-1,4.752328098E-1,2.145562321E-1
6.639185190E-1,-3.619987667E-1,1.111571044E-1,9.177231789E-2
6.739304730E-1,-1.726305187E-1,-3.262223899E-1,-3.101159260E-2
6.839392000E-1,-2.199117094E-3,-6.286006570E-1,-9.820677340E-2
6.939332560E-1,2.443436533E-4,-6.304332614E-1,-1.085914820E-1
7.039133800E-1,-1.121548563E-1,-3.616525829E-1,-9.759590775E-2
7.139041730E-1,-1.769065857E-1,-1.081435084E-1,-7.193956524E-2
7.239027810E-1,-1.598023623E-1,6.778568029E-2,-4.567236081E-2
7.338982960E-1,-1.182635128E-1,1.123788357E-1,-1.757255942E-2
7.439168810E-1,-9.932669252E-2,4.640540108E-2,1.480329875E-2
7.539255390E-1,-1.091005355E-1,-1.529199071E-2,3.007493168E-2
7.639054640E-1,-1.695761979E-1,1.201368868E-3,-1.079197042E-3
7.738955220E-1,-2.483778149E-1,4.823799804E-2,-4.445062950E-2
7.839194360E-1,-2.844188511E-1,1.667458415E-1,-3.345505521E-2
7.939031240E-1,-2.477669567E-1,2.418822646E-1,-2.795726806E-2
8.038941410E-1,-1.982868612E-1,3.139643669E-1,-1.940515451E-2
8.138925530E-1,-1.329242885E-1,3.451184928E-1,-3.040073067E-2
8.238882010E-1,-6.511823833E-2,3.664987981E-1,-4.811581969E-2
8.339203520E-1,-4.129449278E-2,4.410243332E-1,-4.567236081E-2
8.439098890E-1,-7.733554393E-2,5.631974339E-1,-2.612467110E-2
8.539013310E-1,-1.488067806E-1,6.529946327E-1,3.807724454E-3
8.638936870E-1,-2.129476368E-1,6.798726916E-1,2.396627888E-2
8.739189800E-1,-2.776993513E-1,6.755966544E-1,3.557271883E-2
8.839061070E-1,-3.088534772E-1,6.700988412E-1,2.457714453E-2
8.939104400E-1,-2.648711801E-1,6.242839694E-1,9.305511601E-3
9.039280100E-1,-1.683544666E-1,5.277672410E-1,1.425333321E-4
9.139049490E-1,-9.260717034E-2,4.642372131E-1,-3.522658255E-3
9.239065340E-1,-8.833111823E-2,4.532416463E-1,-1.079197042E-3
9.338979420E-1,-1.286482215E-1,4.764545262E-1,8.083782159E-3
9.438894730E-1,-1.817935109E-1,5.234912038E-1,1.297070365E-2
9.539124110E-1,-2.184454203E-1,5.540344715E-1,1.907935739E-2
9.639064770E-1,-2.227214724E-1,5.644191504E-1,2.274454758E-2
9.738966830E-1,-1.891238838E-1,5.589213371E-1,9.916377254E-3
9.838912470E-1,-1.414763927E-1,5.124955773E-1,-4.744388629E-3
9.939487410E-1,-9.505063295E-2,4.208658040E-1,1.364263706E-3
1.003926795E0,-3.701843694E-2,3.041905165E-1,2.457714453E-2
1.013903649E0,5.888740718E-2,1.588045955E-1,4.534656182E-2
1.023891980E0,1.841147840E-1,-2.035871148E-5,3.374012187E-2
1.033887030E0,2.757445574E-1,-1.405193657E-1,9.305511601E-3
1.043907267E0,2.995682955E-1,-2.547511756E-1,1.113810856E-2
1.054112693E0,2.598620653E-1,-3.286658525E-1,1.297070365E-2
1.064001310E0,1.700648814E-1,-3.298875988E-1,5.029455759E-3
1.073940541E0,8.271115273E-2,-2.742988467E-1,-1.079197042E-3
1.083919253E0,3.506366163E-2,-2.174883932E-1,-7.187849842E-3
1.093895609E0,-2.809982747E-3,-1.362433136E-1,-1.085304096E-2
1.103883825E0,-1.200961098E-1,1.178766340E-1,2.030108497E-2
1.113893818E0,-1.677436084E-1,2.461583316E-1,3.190752864E-2
1.123897699E0,-1.988977343E-1,3.646661937E-1,3.496185318E-2
1.133881505E0,-2.282192707E-1,4.373591542E-1,4.656829312E-2
1.143893562E0,-2.251649350E-1,4.233092368E-1,5.817473307E-2
1.153900898E0,-1.836261004E-1,3.390098512E-1,4.901175573E-2
1.163906047E0,-1.109331325E-1,1.801848859E-1,3.190752864E-2
1.173885314E0,-3.665219992E-4,-1.101593487E-2,1.480329875E-2
1.183874101E0,1.059240326E-1,-1.790038794E-1,1.541416440E-2
1.193887321E0,1.841147840E-1,-2.883487642E-1,2.640974149E-2
1.203894835E0,2.421469688E-1,-3.445483744E-1,2.091195062E-2
1.213881650E0,2.494773567E-1,-3.848654628E-1,7.472916506E-3
1.223875384E0,2.225992829E-1,-3.915849924E-1,7.533989847E-4
1.233889732E0,1.670105457E-1,-3.219463527E-1,-1.512909774E-2
1.243894406E0,7.904595882E-2,-1.845016629E-1,-1.757255942E-2
1.253890128E0,-3.665219992E-4,-4.644611850E-2,-1.512909774E-2
1.263888008E0,-4.679227993E-2,4.518366978E-2,-2.307034656E-2
1.273889910E0,-7.061602175E-2,1.032158583E-1,-2.001602016E-2
1.283885861E0,-8.833111823E-2,1.453655660E-1,-2.001602016E-2
1.293883240E0,-1.036027446E-1,1.783522815E-1,-7.187849842E-3
1.303882564E0,-1.219287068E-1,1.930130571E-1,-1.146390662E-2
1.313882034E0,-1.262047589E-1,1.557502747E-1,-1.146390662E-2
1.323904019E0,-1.109331325E-1,4.457280412E-2,-4.133523442E-3
1.333923684E0,-4.557054862E-2,-8.004370332E-2,-6.576984189E-3
1.343916382E0,5.094616115E-2,-1.582344621E-1,-1.451823302E-2
1.353897443E0,1.083674952E-1,-1.765604168E-1,-2.001602016E-2
1.363940089E0,1.132544205E-1,-1.576235890E-1,-2.001602016E-2
1.373977912E0,8.698721230E-2,-1.026457250E-1,-1.757255942E-2
1.383955035E0,6.133086979E-2,-1.468112506E-2,-1.085304096E-2
1.393914250E0,2.834414504E-2,5.984443054E-2,1.975129358E-3
1.403894357E0,-2.113593929E-2,1.136005670E-1,7.472916506E-3
1.413910219E0,-6.023131311E-2,1.453655660E-1,4.418590106E-3
1.423893957E0,-8.405505866E-2,1.325373948E-1,-4.133523442E-3
1.433896461E0,-1.695761979E-1,1.032158583E-1,7.533989847E-4
1.443885655E0,-1.824043691E-1,9.527461231E-2,6.251185201E-3
1.453905291E0,-1.133765876E-1,8.550077677E-2,7.472916506E-3
1.463918186E0,3.567452729E-2,5.679010972E-2,3.807724454E-3
1.473895845E0,1.651779562E-1,-1.223766431E-2,-4.133523442E-3
1.483905289E0,2.207666934E-1,-9.042841196E-2,-5.966119003E-3
1.493895454E0,2.244318724E-1,-1.350215822E-1,-1.079197042E-3
1.503887652E0,1.969429404E-1,-1.166956276E-1,-2.300927415E-3
1.513908828E0,1.395216137E-1,-6.965899467E-2,-9.020444937E-3
1.523913781E0,5.583308637E-2,-3.911573440E-2,-8.409580216E-3
1.533956373E0,-4.031712189E-3,-1.651372202E-2,-7.187849842E-3
1.543938746E0,-4.642577842E-3,-6.312243640E-4,-1.390736736E-2
1.553909163E0,2.712241374E-2,-1.242090017E-3,-1.512909774E-2
1.563970929E0,8.576548100E-2,1.708386838E-2,-1.329650171E-2
1.573959005E0,1.340238303E-1,2.930117026E-2,-1.573996246E-2
1.583923004E0,1.437976658E-1,2.423100173E-3,-1.573996246E-2
1.593900715E0,1.578475684E-1,-2.017891407E-2,-1.940515451E-2
1.603911859E0,1.853365004E-1,-2.078977786E-2,-2.307034656E-2
1.613904566E0,1.944994926E-1,-1.712458767E-2,-2.123774961E-2
1.623918515E0,2.354274690E-1,-4.033746570E-2,-7.798714563E-3
1.633927278E0,2.879618704E-1,-2.873102576E-2,3.807724454E-3
1.643934314E0,2.818532288E-1,2.423100173E-3,1.174897235E-2
1.654083966E0,2.183232307E-1,1.586213708E-2,1.785762608E-2
1.664002773E0,1.273043156E-1,1.158608124E-2,2.274454758E-2
1.673944292E0,3.323106468E-2,-6.129011512E-3,2.702060342E-2
1.683918263E0,3.909535706E-3,-7.350742817E-3,1.785762608E-2
1.693913729E0,7.904595882E-2,-1.345939562E-2,9.305511601E-3
1.703931328E0,1.712866127E-1,-5.011130869E-2,4.418590106E-3
1.713942146E0,2.482556403E-1,-6.904813647E-2,6.862050854E-3
1.723918901E0,2.690250576E-1,-6.904813647E-2,1.663589478E-2
1.734080490E0,2.042733282E-1,-3.056362271E-2,2.213368192E-2
1.744011208E0,7.476990670E-2,-7.350742817E-3,3.984877467E-2
1.753953202E0,-1.604132205E-1,3.033965826E-3,4.595742747E-2
1.763930487E0,-2.025629282E-1,-2.445496991E-2,4.290310293E-2
1.773912649E0,-1.946216822E-1,-6.477207690E-2,3.984877467E-2
1.783927595E0,-1.524719745E-1,-1.087543666E-1,3.007493168E-2
1.793933030E0,-7.000515610E-2,-1.490714848E-1,2.030108497E-2
1.803935632E0,2.162462659E-2,-1.820582002E-1,1.541416440E-2
1.813928721E0,9.309586138E-2,-1.930537820E-1,1.297070365E-2
1.823937497E0,1.480737329E-1,-1.570127308E-1,1.235983800E-2
1.833939327E0,1.755626649E-1,-8.676322550E-2,1.113810856E-2
1.843945396E0,1.358564198E-1,-2.567670122E-2,5.640320480E-3
1.853916449E0,3.811798990E-2,3.174463287E-2,1.358156931E-2
1.863903438E0,-5.412266403E-2,7.817038894E-2,2.152281627E-2
1.873916163E0,-1.194852442E-1,7.022914290E-2,1.846849173E-2
1.883925006E0,-1.457524449E-1,1.201368868E-3,1.419243310E-2
1.893932735E0,-1.384220719E-1,-8.920668066E-2,8.083782159E-3
1.903907369E0,-1.213178411E-1,-1.783930212E-1,1.364263706E-3
1.913896205E0,-8.527678996E-2,-2.419230044E-1,-5.355253816E-3
1.923889142E0,-3.274238110E-2,-2.596380711E-1,-6.576984189E-3
1.933891669E0,9.407320991E-3,-2.370360792E-1,-1.690062694E-3
1.943913394E0,3.139847517E-2,-1.863342673E-1,2.585994080E-3
1.953930564E0,3.811798990E-2,-8.615235984E-2,1.364263706E-3
1.963938533E0,4.544837028E-2,2.991203591E-2,8.694645949E-3
1.973928537E0,3.872885555E-2,8.794423938E-2,1.297070365E-2
1.983903770E0,-2.052507550E-2,7.328346372E-2,8.083782159E-3
1.993891963E0,-9.138543904E-2,3.052290156E-2,7.472916506E-3
2.003884829E0,-1.103222668E-1,-2.873102576E-2,1.113810856E-2
2.013901281E0,-7.489208132E-2,-8.615235984E-2,7.472916506E-3
2.023890411E0,-2.199117094E-3,-1.105869710E-1,-2.300927415E-3
2.033891092E0,7.354817539E-2,-1.240260005E-1,-1.940515451E-2
2.043894336E0,9.126326442E-2,-1.301346570E-1,-2.673553675E-2
2.053887823E0,4.422664642E-2,-1.130304337E-1,-1.207477134E-2
2.063886317E0,-3.946189582E-2,-9.714793414E-2,-2.300927415E-3
2.073884602E0,-1.231504306E-1,-2.017891407E-2,-4.683323205E-4
2.083911879E0,-1.200961098E-1,-3.685552627E-3,5.029455759E-3
2.093896152E0,-9.993755072E-2,-1.242090017E-3,5.640320480E-3
2.103909981E0,-6.511823833E-2,-6.312243640E-4,5.029455759E-3
2.114062857E0,-2.785545774E-2,-8.572474122E-3,-1.079197042E-3
2.123974718E0,-4.642577842E-3,-1.345939562E-2,-1.146390662E-2
2.134338053E0,1.734857075E-2,-6.129011512E-3,-2.001602016E-2
2.144111316E0,5.033529550E-2,1.525127143E-2,-2.123774961E-2
2.154027390E0,5.705481023E-2,4.090761021E-2,-1.635082811E-2
2.163959619E0,2.040289529E-2,4.151847586E-2,-5.966119003E-3
2.173921253E0,-2.235767059E-2,2.319252118E-2,-1.690062694E-3
2.183905224E0,-4.434882104E-2,1.219694316E-2,1.364263706E-3
2.193923536E0,-5.167920142E-2,2.441424876E-2,7.472916506E-3
2.203935789E0,-7.367035002E-2,1.891646162E-2,1.419243310E-2
2.213943146E0,-9.810496122E-2,1.464040577E-2,1.785762608E-2
2.223918017E0,-9.627236426E-2,4.866562784E-3,9.916377254E-3
2.233901894E0,-6.267477572E-2,-1.162680052E-2,-2.911793068E-3
2.243920871E0,-6.267477572E-2,-3.361794725E-2,-8.409580216E-3
2.253907783E0,-5.253443494E-3,-5.683082715E-2,-8.409580216E-3
2.263905220E0,5.131265149E-3,-5.133304000E-2,-9.020444937E-3
2.273909169E0,5.742130801E-3,-4.296416417E-3,-1.690062694E-3
2.283906586E0,1.307251491E-2,1.891646162E-2,-2.300927415E-3
2.293893814E0,1.979203336E-2,1.036434993E-2,-7.187849842E-3
2.303966966E0,-8.307769895E-3,7.310021669E-3,1.364263706E-3
2.313933600E0,-6.817256659E-2,-3.074686974E-3,1.602502912E-2
2.323906032E0,-1.298699528E-1,-2.262237296E-2,2.702060342E-2
2.333922767E0,-1.683544666E-1,-5.133304000E-2,3.312925622E-2
2.343927404E0,-1.732413918E-1,-8.065457642E-2,3.251839057E-2
2.353921588E0,-1.457524449E-1,-1.008131206E-1,2.518801019E-2
2.363934853E0,-1.023810133E-1,-8.309803158E-2,2.152281627E-2
2.373912197E0,-3.885103017E-2,-6.355034560E-2,1.785762608E-2
2.383938792E0,3.445279598E-2,-7.515678555E-2,8.083782159E-3
2.393943647E0,1.114218161E-1,-1.325781196E-1,-1.024217624E-2
2.403944806E0,1.126435474E-1,-1.521258056E-1,-1.818342507E-2
2.413919770E0,7.843510062E-2,-1.509040743E-1,-1.757255942E-2
2.423900271E0,-3.420848399E-3,-1.252477318E-1,6.862050854E-3
2.433901291E0,-8.955284953E-2,-1.252477318E-1,2.885320038E-2
2.443919108E0,-1.378111988E-1,-1.234151423E-1,4.290310293E-2
2.453910574E0,-1.549154371E-1,-1.331889778E-1,5.084434897E-2
2.463937654E0,-1.579697579E-1,-1.454062909E-1,5.145521462E-2
2.473911463E0,-1.420872658E-1,-1.722843647E-1,4.045964032E-2
2.483993002E0,-1.060462072E-1,-1.985515654E-1,3.190752864E-2
2.493946618E0,-5.839871988E-2,-2.132123411E-1,2.518801019E-2
2.503911791E0,-1.624901779E-2,-2.242079079E-1,1.785762608E-2
2.514022339E0,1.001818664E-2,-2.400904000E-1,8.694645949E-3
2.523980786E0,2.223549224E-2,-2.211535871E-1,-7.187849842E-3
2.533988837E0,1.123991795E-2,-1.588453203E-1,-7.187849842E-3
2.543931304E0,-1.380555704E-2,-1.008131206E-1,-1.079197042E-3
2.553925269E0,-3.213151544E-2,-6.293947995E-2,7.533989847E-4
2.563903963E0,-4.557054862E-2,-2.750929631E-2,5.640320480E-3
2.573916790E0,-6.450737268E-2,-6.312243640E-4,8.694645949E-3
2.583894896E0,-1.176526472E-1,5.477428436E-3,2.030108497E-2
2.593889315E0,-1.848478317E-1,-1.162680052E-2,5.084434897E-2
2.603883332E0,-1.995085925E-1,-2.140064351E-2,6.489424407E-2
2.614059513E0,-1.262047589E-1,8.531752974E-3,4.168137163E-2
2.623970719E0,-2.663372643E-2,5.477428436E-3,1.663589478E-2
2.633951822E0,3.933972120E-2,-7.943284512E-2,7.533989847E-4
2.643937604E0,6.133086979E-2,-1.881668568E-1,-7.187849842E-3
2.653934765E0,4.789183289E-2,-2.700228095E-1,-1.329650171E-2
2.663909653E0,2.528982051E-2,-2.975117266E-1,-1.818342507E-2
2.673903308E0,-2.809982747E-3,-2.651358843E-1,-9.020444937E-3
2.683895982E0,-3.152064979E-2,-1.845016629E-1,9.305511601E-3
2.693910223E0,-4.434882104E-2,-8.004370332E-2,1.785762608E-2
2.703906382E0,-5.106833577E-2,2.258165553E-2,2.213368192E-2
2.713897058E0,-5.290093273E-2,6.839655340E-2,2.518801019E-2
2.723892492E0,-2.199117094E-3,2.441424876E-2,1.602502912E-2
2.733917016E0,3.909535706E-3,-1.590285636E-2,1.907935739E-2
2.743898528E0,-1.588251442E-3,-7.454591990E-2,2.457714453E-2
2.753899015E0,4.520399496E-3,-1.197499484E-1,2.274454758E-2
2.763904759E0,3.078760765E-2,-1.246368736E-1,1.358156931E-2
2.773929515E0,5.400048941E-2,-9.836965799E-2,5.029455759E-3
2.783938586E0,5.705481023E-2,-8.065457642E-2,-4.683323205E-4
2.793914313E0,3.933972120E-2,-9.898053110E-2,-7.798714563E-3
2.803911004E0,2.895501070E-2,-1.460171491E-1,-6.576984189E-3
2.813897234E0,5.094616115E-2,-1.845016629E-1,-1.635082811E-2
2.823894060E0,9.126326442E-2,-2.071036845E-1,-3.345505521E-2
2.833918743E0,1.352455616E-1,-1.912211925E-1,-4.078543931E-2
2.843901450E0,1.786169857E-1,-1.270803362E-1,-4.139630124E-2
2.853936399E0,2.024407387E-1,-7.943284512E-2,-3.528765216E-2
2.863940835E0,1.969429404E-1,-6.416121125E-2,-1.757255942E-2
2.873917572E0,1.670105457E-1,-3.972660005E-2,-1.757255942E-2
2.883924806E0,1.187522039E-1,-1.040506922E-2,-1.085304096E-2
2.893936269E0,5.094616115E-2,3.357722983E-2,-2.123774961E-2
2.903938251E0,-3.640757129E-2,7.022914290E-2,-1.329650171E-2
2.913922742E0,-1.200961098E-1,6.045529619E-2,1.364263706E-3
2.923939199E0,-1.665218771E-1,3.540982679E-2,8.083782159E-3
2.933934774E0,-1.836261004E-1,1.280780882E-2,9.305511601E-3
2.943938369E0,-1.799609065E-1,-7.961608469E-3,1.113810856E-2
2.953910070E0,-1.579697579E-1,-3.074686974E-3,1.846849173E-2
2.963925421E0,-1.060462072E-1,8.531752974E-3,2.335541323E-2
2.973934712E0,-3.457497433E-2,1.201368868E-3,2.030108497E-2
2.983912569E0,1.734857075E-2,-1.590285636E-2,1.419243310E-2
2.993898401E0,3.200933337E-2,-6.129011512E-3,9.305511601E-3
3.003892278E0,1.795943640E-2,1.769473031E-2,6.251185201E-3
3.013888082E0,-1.441642176E-2,1.769473031E-2,5.640320480E-3
3.023887292E0,-6.145304441E-2,-1.852955669E-3,1.364263706E-3
3.033901628E0,-1.243721619E-1,-6.312243640E-4,-3.522658255E-3
3.043892161E0,-2.202780098E-1,6.534221768E-2,1.052724291E-2
3.053888274E0,-2.355496436E-1,5.679010972E-2,2.091195062E-2
3.063885580E0,-2.251649350E-1,3.296636418E-2,3.190752864E-2
3.073894118E0,-1.921782196E-1,1.036434993E-2,3.190752864E-2
3.083904425E0,-1.378111988E-1,2.258165553E-2,2.702060342E-2
3.093924521E0,-8.038986474E-2,3.663155809E-2,2.579887584E-2
3.103903512E0,-4.618141428E-2,4.457280412E-2,1.846849173E-2
3.114670007E0,-5.534439534E-2,4.457280412E-2,1.969022304E-2
3.124283024E0,-9.443976730E-2,7.310021669E-3,3.374012187E-2
3.134083455E0,-1.378111988E-1,-5.621996522E-2,5.084434897E-2
3.143998902E0,-1.677436084E-1,-1.038674563E-1,5.573127046E-2
3.153940683E0,-1.756848544E-1,-1.289129257E-1,6.428337842E-2
3.163916516E0,-1.756848544E-1,-1.747278273E-1,6.122906134E-2
3.173912586E0,-1.347568780E-1,-1.631213874E-1,5.145521462E-2
3.183931217E0,-8.894198388E-2,-1.399085075E-1,5.634213611E-2
3.193908552E0,-1.017701477E-1,-1.515149474E-1,5.145521462E-2
3.203925662E0,-1.335351467E-1,-1.845016629E-1,6.183992699E-2
3.213935697E0,-1.518611014E-1,-2.468099296E-1,9.116145223E-2
3.223934734E0,-1.585806310E-1,-2.590272129E-1,9.360491484E-2
3.233935195E0,-1.353677362E-1,-2.009950280E-1,6.489424407E-2
3.243908675E0,-9.321803600E-2,-1.985515654E-1,4.168137163E-2
3.253901165E0,-8.100073040E-2,-2.590272129E-1,3.984877467E-2
3.263960699E0,-1.213178411E-1,-3.347745240E-1,4.534656182E-2
3.273930408E0,-1.958433986E-1,-4.074674845E-1,4.779002443E-2
3.283919955E0,-2.673146427E-1,-4.868799746E-1,6.306164712E-2
3.293901517E0,-3.265685737E-1,-5.400252342E-1,8.199847490E-2
3.303924683E0,-3.699400127E-1,-6.292115450E-1,1.168177947E-1
3.313908362E0,-3.815464377E-1,-8.039190173E-1,1.632435620E-1
3.323994740E0,-3.833790421E-1,-9.877894521E-1,1.834021062E-1
3.333949698E0,-3.913202882E-1,-1.140505791E0,1.846238375E-1
3.343942504E0,-4.298048019E-1,-1.196705461E0,1.895107627E-1
3.353926041E0,-4.530176818E-1,-1.281004786E0,1.827912480E-1
3.364164945E0,-4.035376012E-1,-1.596822143E0,1.608000994E-1
3.374022320E0,-3.082426190E-1,-1.732434273E0,1.168177947E-1
3.383979469E0,-1.695761979E-1,-1.948680520E0,7.527895272E-2
3.393936851E0,-7.367035002E-2,-2.001214981E0,8.077674359E-2
3.403920869E0,-5.534439534E-2,-1.929132819E0,9.177231789E-2
3.413938647E0,-6.633996964E-2,-1.863159418E0,9.360491484E-2
3.423924074E0,-8.222246170E-2,-1.803294539E0,8.566366136E-2
3.433943653E0,-7.000515610E-2,-1.810014129E0,6.672684103E-2
3.443917174E0,-3.824016452E-2,-1.830783486E0,5.328780785E-2
3.453902011E0,-5.167920142E-2,-1.709221363E0,6.917030364E-2
3.463895314E0,-1.097114012E-1,-1.478925109E0,9.299404919E-2
3.473889581E0,-1.549154371E-1,-1.200370550E0,1.088765413E-1
3.483887003E0,-1.231504306E-1,-9.352550507E-1,9.604837745E-2
3.493885772E0,-4.007276148E-2,-7.177869678E-1,3.374012187E-2
3.503901368E0,5.094616115E-2,-5.699576139E-1,-3.528765216E-2
3.513918146E0,1.254717112E-1,-4.856582284E-1,-7.499389350E-2
3.523911055E0,1.468520015E-1,-4.508389235E-1,-8.293513954E-2
3.534223028E0,8.576548100E-2,-4.031914175E-1,-7.560475916E-2
3.544076380E0,-1.685988158E-2,-3.714264333E-1,-5.300274119E-2
3.554012652E0,-9.566149861E-2,-4.392324686E-1,-2.490294166E-2
3.563973404E0,-1.475850493E-1,-5.033733249E-1,2.579887584E-2
3.573965914E0,-1.879021525E-1,-4.795495868E-1,8.260934055E-2
3.583919823E0,-1.982868612E-1,-4.196847975E-1,1.241481826E-1
3.593919201E0,-1.707979292E-1,-3.457700908E-1,1.327002943E-1
3.603924101E0,-1.255939007E-1,-2.669684589E-1,1.064330861E-1
3.613950051E0,-6.939429045E-2,-2.596380711E-1,5.634213611E-2
3.623927142E0,-5.253443494E-3,-2.907922268E-1,1.907935739E-2
3.633898456E0,3.933972120E-2,-3.225572109E-1,-5.355253816E-3
3.643899748E0,8.759807795E-2,-3.585982621E-1,-1.451823302E-2
3.653880606E0,1.236391291E-1,-3.573765457E-1,-2.300927415E-3
3.663889208E0,8.271115273E-2,-2.920139432E-1,-5.966119003E-3
3.673892970E0,-5.253443494E-3,-1.521258056E-1,7.533989847E-4
3.683878063E0,-7.428121567E-2,-8.859582245E-2,3.679445013E-2
3.693887378E0,-2.007303238E-1,-3.353853822E-1,1.742391288E-1
3.703895844E0,-2.599842548E-1,-4.514497817E-1,2.444886267E-1
3.713900327E0,-2.752558887E-1,-5.424686670E-1,2.609820068E-1
3.723922626E0,-2.758667469E-1,-5.418577790E-1,2.212757617E-1
3.733908891E0,-2.783102095E-1,-4.508389235E-1,2.188322991E-1
3.743885639E0,-2.825862765E-1,-5.058167577E-1,2.725884318E-1
3.753880686E0,-2.819754183E-1,-6.982393265E-1,3.110729456E-1
3.763890998E0,-2.624277174E-1,-9.059334993E-1,3.361184299E-1
3.773894115E0,-2.416583002E-1,-1.131342769E0,3.495574594E-1
3.783878212E0,-2.141693681E-1,-1.266954899E0,3.116838038E-1
3.793887530E0,-1.634675413E-1,-1.278561354E0,2.255518138E-1
3.803900516E0,-1.139874533E-1,-1.223583460E0,1.540805846E-1
3.813900009E0,-1.127657220E-1,-1.133786321E0,1.363654882E-1
3.823900044E0,-1.512502432E-1,-1.015278459E0,1.412524134E-1
3.833904465E0,-1.726305187E-1,-8.686707020E-1,1.357546151E-1
3.843894906E0,-1.769065857E-1,-7.367238402E-1,1.125417352E-1
3.853882973E0,-1.921782196E-1,-5.950030684E-1,9.238318354E-2
3.863889276E0,-2.239432037E-1,-4.129652679E-1,1.070439517E-1
3.873895446E0,-2.447126210E-1,-3.323310614E-1,1.614109576E-1
3.883882608E0,-2.386039793E-1,-4.190739095E-1,1.962302774E-1
3.893892997E0,-2.214997411E-1,-6.286006570E-1,1.742391288E-1
3.903887845E0,-1.866804212E-1,-8.839423656E-1,1.113200039E-1
3.913883654E0,-1.457524449E-1,-1.095301747E0,3.251839057E-2
3.923880885E0,-1.207069755E-1,-1.158220887E0,-3.773111105E-2
3.934427539E0,-1.225395650E-1,-1.019554496E0,-5.544620380E-2
3.947434636E0,-1.799609065E-1,-5.901161432E-1,9.916377254E-3
3.964638579E0,-1.830152422E-1,-4.630562067E-1,1.969022304E-2
3.974110463E0,-1.830152422E-1,-4.630562067E-1,1.969022304E-2
3.983917117E0,-1.744631231E-1,-4.141870141E-1,3.129666299E-2
3.993887310E0,-1.653001457E-1,-3.812002838E-1,1.235983800E-2
4.003875002E0,-1.561371684E-1,-3.372179866E-1,-4.628322273E-2
4.013919079E0,-1.298699528E-1,-3.940284550E-1,-1.061480194E-1
4.024053425E0,-5.412266403E-2,-8.882184029E-1,-1.147001386E-1
4.034359617E0,-4.373795539E-2,-1.135618925E0,-8.721119910E-2
4.044031540E0,-8.955284953E-2,-1.248018146E0,-5.727879703E-2
4.053928502E0,-1.414763927E-1,-1.183877230E0,-1.940515451E-2
4.063913117E0,-1.475850493E-1,-1.040934801E0,-2.911793068E-3
4.073898925E0,-1.341460049E-1,-9.236485958E-1,-5.966119003E-3
4.083866348E0,-1.396438032E-1,-7.929234505E-1,2.585994080E-3
4.093879733E0,-1.653001457E-1,-6.359310746E-1,3.129666299E-2
4.104006156E0,-1.414763927E-1,-4.917668998E-1,3.007493168E-2
4.113905617E0,-7.305948436E-2,-3.836437464E-1,-1.146390662E-2
4.123934617E0,-3.518583998E-2,-3.512678742E-1,-4.322889820E-2
4.133911002E0,-5.473352969E-2,-3.854763210E-1,-4.322889820E-2
4.143897656E0,-9.443976730E-2,-4.716083407E-1,-3.773111105E-2
4.153904502E0,-1.249830276E-1,-6.029443145E-1,-3.162245825E-2
4.163961079E0,-1.420872658E-1,-8.503447771E-1,-5.117014796E-2
4.173906194E0,-1.164309159E-1,-1.128899336E0,-9.820677340E-2
4.183886694E0,-7.367035002E-2,-1.284059167E0,-1.379130036E-1
4.193896348E0,-5.106833577E-2,-1.328041434E0,-1.275282949E-1
4.203874002E0,-5.595526099E-2,-1.317656755E0,-6.399831921E-2
4.213917194E0,-7.794640958E-2,-1.281004786E0,5.029455759E-3
4.223867771E0,-1.036027446E-1,-1.144171000E0,4.290310293E-2
4.233889656E0,-1.310916841E-1,-8.026972413E-1,5.206608027E-2
4.243921617E0,-1.561371684E-1,-4.447302520E-1,6.489424407E-2
4.253909386E0,-1.744631231E-1,-2.975117266E-1,5.389867350E-2
4.263925540E0,-1.720196605E-1,-3.628743291E-1,7.533989847E-4
4.273932502E0,-1.207069755E-1,-4.984863997E-1,-1.018719673E-1
4.283919886E0,-4.495968670E-2,-6.469266415E-1,-1.935017407E-1
4.293914386E0,3.628539294E-2,-7.788735032E-1,-2.313753963E-1
4.303916425E0,8.148942143E-2,-8.595077395E-1,-2.356514484E-1
4.313916617E0,9.553932399E-2,-8.912727237E-1,-2.099951059E-1
4.323882771E0,1.016479805E-1,-8.613403440E-1,-1.678453982E-1
4.333908040E0,8.759807795E-2,-7.654345036E-1,-1.134784073E-1
4.345036656E0,4.117231816E-2,-5.760662556E-1,-3.522658255E-3
4.353881463E0,3.689625859E-2,-4.703865945E-1,2.213368192E-2
4.363936271E0,3.628539294E-2,-3.842546046E-1,2.946406603E-2
4.373881232E0,4.605923593E-2,-2.999551892E-1,1.364263706E-3
4.383981232E0,3.628539294E-2,-2.400904000E-1,-2.307034656E-2
4.395498925E0,4.520399496E-3,-2.235970497E-1,-8.409580216E-3
4.403876079E0,-2.602286078E-2,-1.539583951E-1,-9.020444937E-3
4.413872579E0,-7.696904242E-3,-4.461352155E-2,-4.139630124E-2
4.423880540E0,3.506366163E-2,-3.422881290E-2,-6.094399095E-2
4.433878079E0,4.483751208E-2,-1.179173589E-1,-5.544620380E-2
4.445499848E0,3.445279598E-2,-2.724662423E-1,-2.795726806E-2
4.453924809E0,3.628539294E-2,-4.807713032E-1,9.916377254E-3
4.464683540E0,3.628539294E-2,-6.090529561E-1,3.557271883E-2
4.473879540E0,8.796459064E-3,-6.231029034E-1,4.840089008E-2
4.483951655E0,-1.869247854E-2,-6.169942021E-1,7.527895272E-2
4.493894348E0,-4.068362713E-2,-6.011117101E-1,9.910269827E-2
4.503876886E0,-6.023131311E-2,-5.149797797E-1,9.360491484E-2
4.513878963E0,-6.572910398E-2,-3.604308665E-1,4.717915878E-2
4.523925194E0,-3.640757129E-2,-1.014239937E-1,-4.261803254E-2
4.533875655E0,-1.588251442E-3,1.081027836E-1,-1.098132133E-1
4.543878386E0,1.612683944E-2,1.215418130E-1,-1.024828330E-1
4.553915655E0,-4.031712189E-3,6.699156016E-3,-5.605706945E-2
4.564023963E0,-2.602286078E-2,-8.798495680E-2,-4.683323205E-4
4.573909655E0,-3.824016452E-2,-1.845016629E-1,5.145521462E-2
4.583866848E0,-6.084217876E-2,-3.311093152E-1,1.033787578E-1
4.593897694E0,-7.000515610E-2,-4.538932443E-1,1.418632716E-1
4.603920040E0,-4.984660447E-2,-5.699576139E-1,1.259807795E-1
4.613882348E0,-2.809982747E-3,-7.183978558E-1,8.749625832E-2
4.623891732E0,1.490510814E-2,-8.430143595E-1,5.512040481E-2
4.633908925E0,-4.642577842E-3,-8.766119480E-1,3.862704337E-2
4.643912078E0,-1.197296102E-2,-8.442360759E-1,1.907935739E-2
4.653885578E0,-4.642577842E-3,-7.690996528E-1,-1.390736736E-2
4.663920886E0,-1.991420984E-2,-6.579222083E-1,-1.329650171E-2
4.673901040E0,-5.534439534E-2,-6.634199619E-1,1.094874069E-1
4.683911501E0,-4.984660447E-2,-7.110674977E-1,1.345328987E-1
4.693925617E0,-3.335324302E-2,-7.300043106E-1,1.327002943E-1
4.703876194E0,1.429424621E-2,-7.544389367E-1,8.383107185E-2
4.713913194E0,7.538077235E-2,-7.361129522E-1,-9.020444937E-3
4.723902001E0,6.133086979E-2,-6.945741177E-1,-4.628322273E-2
4.733886617E0,8.185593411E-3,-6.621982455E-1,1.419243310E-2
4.743911155E0,-5.534439534E-2,-6.628091335E-1,7.894414663E-2
4.753876617E0,-1.121548563E-1,-6.689177752E-1,1.412524134E-1
4.763912694E0,-1.298699528E-1,-6.793025136E-1,1.650761515E-1
4.773919348E0,-9.871582687E-2,-7.165652514E-1,1.247590408E-1
4.783909348E0,-4.007276148E-2,-8.008646965E-1,6.733770669E-2
4.793874886E0,3.298670053E-3,-9.242594242E-1,5.939646438E-2
4.803867040E0,1.551597379E-2,-9.963415265E-1,9.482664615E-2
4.813960309E0,2.284635790E-2,-1.009169698E0,1.345328987E-1
4.823986117E0,5.277875811E-2,-1.013445854E0,1.491936594E-1
4.833983232E0,8.026769012E-2,-1.058649898E0,1.430850029E-1
4.843977578E0,1.053131744E-1,-1.018332720E0,1.107091382E-1
4.853919424E0,1.071457639E-1,-7.049588561E-1,3.312925622E-2
4.863908424E0,6.194173545E-2,-3.225572109E-1,-2.734640241E-2
4.873900155E0,3.445279598E-2,-1.264694631E-1,-4.133523442E-3
4.883905655E0,-7.696904242E-3,-2.995275706E-2,8.199847490E-2
4.893898963E0,-7.061602175E-2,8.611163497E-2,1.724065393E-1
4.903895271E0,-1.054353416E-1,1.636915207E-1,2.359365225E-1
4.913900809E0,-1.176526472E-1,1.398677826E-1,2.420451641E-1
4.923898732E0,-1.286482215E-1,1.539176852E-1,1.846238375E-1
4.933860809E0,-1.054353416E-1,1.991217136E-1,1.125417352E-1
4.943897732E0,-5.290093273E-2,1.545285434E-1,3.618358448E-2
4.953896809E0,2.076940611E-3,3.052290156E-2,-2.123774961E-2
4.963903270E0,2.345722355E-2,-5.011130869E-2,-3.406592086E-2
4.973899232E0,4.422664642E-2,-8.431976289E-2,-5.666793510E-2
4.983862847E0,6.560692936E-2,-1.337998509E-1,-7.316129655E-2
4.993911501E0,6.072000414E-2,-1.832799315E-1,-6.399831921E-2
5.003907194E0,4.483751208E-2,-2.101580054E-1,-6.949610263E-2
5.013915309E0,2.712241374E-2,-1.771712899E-1,-7.377216220E-2
5.023906578E0,9.407320991E-3,-1.392976344E-1,-7.682649046E-2
5.033906886E0,-4.031712189E-3,-7.576765120E-2,-1.006502360E-1
5.043904347E0,-2.846632339E-2,9.142618626E-3,-9.637417644E-2
5.053899117E0,-6.511823833E-2,7.145087421E-2,-4.017457366E-2
5.063899270E0,-7.305948436E-2,2.258165553E-2,1.975129358E-3
5.073897347E0,-7.183775306E-2,-6.293947995E-2,3.807724454E-3
5.083904040E0,-7.977900654E-2,-1.612887830E-1,5.029455759E-3
5.093900424E0,-9.566149861E-2,-3.005660772E-1,6.251185201E-3
5.103917655E0,-9.932669252E-2,-4.245717227E-1,-3.223332390E-2
5.113902617E0,-5.900958180E-2,-4.300695062E-1,-1.134784073E-1
5.123897963E0,-1.441642176E-2,-3.744807541E-1,-1.806735694E-1
5.133896193E0,1.429424621E-2,-3.402723074E-1,-2.319862545E-1
5.143896693E0,3.628539294E-2,-3.188920319E-1,-2.778011560E-1
5.153899540E0,7.049384713E-2,-2.938465476E-1,-2.997922897E-1
5.163903232E0,9.431759268E-2,-2.895704806E-1,-3.181182444E-1
5.173900847E0,8.820894361E-2,-2.865161598E-1,-3.065118194E-1
5.183867463E0,6.072000414E-2,-2.578054965E-1,-2.472578883E-1
5.193907347E0,3.298670053E-3,-2.009950280E-1,-1.678453982E-1
5.203898847E0,-5.290093273E-2,-1.435736865E-1,-7.804822177E-2
5.213899116E0,-1.091005355E-1,-1.429628283E-1,-1.207477134E-2
5.223897540E0,-1.439198554E-1,-2.052710801E-1,1.541416440E-2
5.233906039E0,-1.292590946E-1,-2.553620338E-1,2.518801019E-2
5.243912386E0,-9.749409556E-2,-2.926248014E-1,-1.268563699E-2
5.253905039E0,-7.916814089E-2,-3.188920319E-1,-9.393071383E-2
5.263905655E0,-4.862487316E-2,-3.298875988E-1,-1.666236669E-1
5.273899847E0,-1.502728742E-2,-3.757025003E-1,-1.941126138E-1
5.283900693E0,-5.253443494E-3,-4.349564314E-1,-1.757866591E-1
5.293909039E0,-5.864309147E-3,-4.557258487E-1,-1.330260932E-1
5.303901001E0,-1.808161288E-2,-4.141870141E-1,-5.727879703E-2
5.313904424E0,-6.084217876E-2,-3.219463527E-1,5.389867350E-2
5.323896770E0,-2.428800315E-1,5.068145320E-2,3.055751622E-1
5.333902193E0,-3.290120363E-1,1.636915207E-1,3.739920557E-1
5.343896347E0,-3.607770205E-1,1.643023938E-1,3.342858255E-1
5.353908424E0,-2.807536721E-1,9.832894802E-2,1.748500019E-1
5.363906116E0,-1.750739813E-1,-1.895718277E-2,-2.184861526E-2
5.373903539E0,-1.103222668E-1,-1.350215822E-1,-1.727323234E-1
5.383900578E0,-6.939429045E-2,-1.515149474E-1,-2.380949110E-1
5.393891616E0,-2.785545774E-2,-1.063109189E-1,-2.393166423E-1
5.403864309E0,1.429424621E-2,-1.337998509E-1,-2.173254937E-1
5.413870347E0,2.956587635E-2,-1.851125360E-1,-1.880039573E-1
5.423863078E0,6.352996454E-3,-1.936646402E-1,-1.379130036E-1
5.433879155E0,-4.129449278E-2,-1.735060960E-1,-7.865908742E-2
5.443870578E0,-8.405505866E-2,-1.851125360E-1,-1.879428886E-2
5.453907078E0,-1.317025572E-1,-2.028276324E-1,3.435098752E-2
5.463904578E0,-1.628566831E-1,-2.223753184E-1,5.023348331E-2
5.473899385E0,-1.695761979E-1,-2.675793469E-1,2.885320038E-2
5.483867193E0,-1.372003406E-1,-3.256115317E-1,-2.856813371E-2
5.493904847E0,-6.328564137E-2,-3.860872090E-1,-1.348586828E-1
5.503896039E0,-2.113593929E-2,-4.154087305E-1,-2.307645231E-1
5.513899885E0,-5.864309147E-3,-4.215173721E-1,-2.723033726E-1
5.523896924E0,2.162462659E-2,-4.703865945E-1,-2.949053645E-1
5.533914385E0,5.155702680E-2,-5.436903834E-1,-3.101769984E-1
5.543879385E0,6.866125017E-2,-5.473555923E-1,-2.875750065E-1
5.553899078E0,7.660250366E-2,-4.734409153E-1,-2.356514484E-1
5.563903616E0,7.538077235E-2,-3.689829707E-1,-1.660128087E-1
5.573896385E0,3.689625859E-2,-2.932356894E-1,-8.293513954E-2
5.583903308E0,-3.274238110E-2,-2.626924217E-1,-4.133523442E-3
5.594034578E0,-9.566149861E-2,-2.907922268E-1,4.962261766E-2
5.603883847E0,-1.390329301E-1,-3.921958506E-1,6.550510973E-2
5.613873270E0,-1.628566831E-1,-5.100928545E-1,4.779002443E-2
5.623864347E0,-1.720196605E-1,-5.809531808E-1,2.152281627E-2
5.633869232E0,-1.659110039E-1,-6.072204113E-1,2.030108497E-2
5.643870655E0,-1.378111988E-1,-4.887125492E-1,8.993972093E-2
5.653864539E0,-6.695083529E-2,-5.021516085E-1,1.058222204E-1
5.663873539E0,6.963862106E-3,-5.406360626E-1,7.894414663E-2
5.673864385E0,1.059240326E-1,-5.247535706E-1,3.984877467E-2
5.683897231E0,2.311514020E-1,-4.221282601E-1,2.518801019E-2
5.693900270E0,3.747047484E-1,-2.284839600E-1,3.740531579E-2
5.703900001E0,5.261993408E-1,-6.739877164E-3,8.383107185E-2
5.713895539E0,7.528303266E-1,1.704110354E-1,2.713667154E-1
5.723897501E0,8.725599647E-1,1.233744174E-1,4.778391719E-1
5.733901731E0,8.548448682E-1,1.402954012E-2,5.450342894E-1
5.743906693E0,7.992560863E-1,-1.032565832E-1,5.041063428E-1
5.753898847E0,7.167893052E-1,-2.651358843E-1,4.185852408E-1
5.763907847E0,6.062226892E-1,-4.532823861E-1,3.269554377E-1
5.773901578E0,4.919908345E-1,-7.055696845E-1,2.829731405E-1
5.783898885E0,4.602258801E-1,-8.986030817E-1,2.964121699E-1
5.793894885E0,4.034154117E-1,-6.768590212E-1,3.190141916E-1
5.803868924E0,3.313333094E-1,-2.761314511E-1,3.507791758E-1
5.813906962E0,2.873510122E-1,-8.676322550E-2,3.947614729E-1
5.823899116E0,2.671924531E-1,-7.760024071E-2,3.978158236E-1
5.833900847E0,2.855184078E-1,2.930117026E-2,3.458922803E-1
5.843905193E0,4.388455749E-1,3.396207094E-1,2.890818119E-1
5.853896770E0,5.665164590E-1,4.611828923E-1,2.799188197E-1
5.863906078E0,5.194798112E-1,4.153679907E-1,3.245119750E-1
5.873903424E0,4.467868209E-1,4.049832821E-1,4.124765694E-1
5.883927116E0,4.003610611E-1,4.648480713E-1,4.961651266E-1
5.893902808E0,3.435505927E-1,5.503692627E-1,5.713015199E-1
5.903896231E0,2.751336992E-1,4.196440578E-1,6.171163917E-1
5.913873385E0,2.299296558E-1,9.832894802E-2,5.865731239E-1
5.923863539E0,2.225992829E-1,-1.130304337E-1,5.077715516E-1
5.933866001E0,2.623055279E-1,-1.081435084E-1,4.210287035E-1
5.943909424E0,3.258355260E-1,-4.522438720E-2,3.697160184E-1
5.953863654E0,3.704286814E-1,-6.660467386E-2,3.410053551E-1
5.963861693E0,3.612656891E-1,-1.735060960E-1,3.196250498E-1
5.973896116E0,2.195449620E-1,-3.274441361E-1,2.518190145E-1
5.983936616E0,1.364672929E-1,-3.366071284E-1,2.023389339E-1
5.993935154E0,5.949827284E-2,-3.341636658E-1,1.736282706E-1
6.003925924E0,-1.441642176E-2,-3.335527778E-1,1.998954713E-1
6.013940500E0,-1.860695630E-1,-2.865161598E-1,2.903035283E-1
6.023940231E0,-6.778160334E-1,-2.584163547E-1,3.739920557E-1
6.033976347E0,-6.594901085E-1,-2.791857719E-1,4.466850460E-1
6.043887808E0,-3.571118414E-1,-2.339817584E-1,5.163236260E-1
6.053884154E0,-2.233323455E-1,-2.168775201E-1,4.705087841E-1
6.063935231E0,-8.161159605E-2,-2.162666619E-1,3.758246601E-1
6.073924885E0,6.072000414E-2,-2.510859668E-1,3.654399514E-1
6.083955808E0,2.018298656E-1,-2.706336677E-1,4.582914710E-1
6.093888154E0,3.123964667E-1,-3.304984570E-1,5.731341243E-1
6.103886193E0,3.099530041E-1,-4.050240219E-1,6.220033169E-1
6.114082616E0,2.238210142E-1,-4.349564314E-1,6.329988837E-1
6.123956500E0,1.370781511E-1,-4.221282601E-1,6.494922638E-1
6.133883423E0,2.040289529E-2,-4.746626616E-1,6.891984940E-1
6.143879385E0,-8.405505866E-2,-5.528534055E-1,7.698327303E-1
6.153865962E0,-1.145983189E-1,-5.314731002E-1,8.272540569E-1
6.163862962E0,-8.955284953E-2,-4.257934391E-1,8.413039446E-1
6.173945231E0,-6.267477572E-2,-2.449773252E-1,8.920057416E-1
6.183898654E0,-4.557054862E-2,-4.705698416E-2,9.891333580E-1
6.193873347E0,-2.968805283E-2,9.832894802E-2,1.078319669E0
6.203915385E0,-3.579670563E-2,1.960673779E-1,1.166284323E0
6.213867731E0,-9.382890165E-2,3.414533138E-1,1.272574902E0
6.223901885E0,-2.160019577E-1,5.576996207E-1,1.361150384E0
6.233903923E0,-3.632204831E-1,7.446243763E-1,1.446671486E0
6.243875385E0,-5.110498667E-1,9.107797742E-1,1.607939839E0
6.253867962E0,-6.338337660E-1,1.042726636E0,1.809525371E0
6.263893808E0,-6.796486378E-1,1.090984941E0,1.897490025E0
6.273868154E0,-6.576575041E-1,1.003631234E0,1.884661794E0
6.283870770E0,-5.751906633E-1,8.331998587E-1,1.796086431E0
6.293910385E0,-4.145331681E-1,3.035796583E-1,1.321444035E0
6.303903000E0,-4.847826660E-1,1.844609380E-1,1.190718889E0
6.314223000E0,-5.367062092E-1,1.661349833E-1,1.136962771E0
6.323861885E0,-4.939456582E-1,2.107281387E-1,1.094202280E0
6.333907385E0,-4.157548845E-1,2.925840914E-1,1.055717707E0
6.343862500E0,-3.308446109E-1,2.986927330E-1,9.952419400E-1
6.353862577E0,-2.471560836E-1,2.314975560E-1,9.237707853E-1
6.363868154E0,-1.769065857E-1,2.119498700E-1,8.187019229E-1
6.373867462E0,-1.628566831E-1,2.131716013E-1,7.020266652E-1
6.383872577E0,-2.147802263E-1,1.001615375E-1,6.433836222E-1
6.393867693E0,-2.691472173E-1,-9.898053110E-2,7.240177989E-1
6.403903231E0,-3.192381859E-1,-2.962900102E-1,9.152186513E-1
6.413906731E0,-3.815464377E-1,-4.245717227E-1,1.115582466E0
6.423864692E0,-4.511850774E-1,-4.575584233E-1,1.289679050E0
6.433872962E0,-5.171585083E-1,-4.807713032E-1,1.356874228E0
6.443900846E0,-5.782450438E-1,-5.107036829E-1,1.325109243E0
6.453869654E0,-6.222273111E-1,-5.076493621E-1,1.290289998E0
6.463873654E0,-6.350554824E-1,-4.606127441E-1,1.249972820E0
6.473901539E0,-5.880188346E-1,-4.288477600E-1,1.207212329E0
6.483865385E0,-5.489234924E-1,-4.844365120E-1,1.251194596E0
6.493872577E0,-5.519778132E-1,-5.491881967E-1,1.391082764E0
6.503897962E0,-6.026796103E-1,-5.449121594E-1,1.551129460E0
6.513909346E0,-6.918659806E-1,-5.192558169E-1,1.661696076E0
6.523902269E0,-7.462329865E-1,-5.491881967E-1,1.725226045E0
6.533908000E0,-7.437894940E-1,-5.986682773E-1,1.747828007E0
6.543903539E0,-7.572285533E-1,-5.931704640E-1,1.705678344E0
6.553875885E0,-7.993782163E-1,-5.449121594E-1,1.656198263E0
6.563951154E0,-8.299214840E-1,-4.826039076E-1,1.628098488E0
6.573863846E0,-8.903971314E-1,-3.573765457E-1,1.595111728E0
6.583869269E0,-9.881355762E-1,-2.272622287E-1,1.540744662E0
6.593920539E0,-1.057163358E0,-1.954972446E-1,1.538301229E0
6.603864500E0,-1.079765439E0,-2.431447357E-1,1.560292363E0
6.613909385E0,-1.033339620E0,-3.414940238E-1,1.331217885E0
6.623906039E0,-6.820921302E-1,-3.628743291E-1,1.154677868E0
6.633905038E0,-4.743979573E-1,-3.628743291E-1,9.927985072E-1
6.643982923E0,-3.192381859E-1,-3.402723074E-1,8.736798167E-1
6.653907000E0,-2.324953228E-1,-3.127833605E-1,8.803993464E-1
6.663912346E0,-2.043955177E-1,-2.376469374E-1,9.720290899E-1
6.673869846E0,-2.526538670E-1,-6.599380821E-2,1.064880729E0
6.684169692E0,-3.919311464E-1,1.551394016E-1,1.099089146E0
6.693936962E0,-5.477017760E-1,2.913623452E-1,1.125967264E0
6.703903846E0,-6.417750120E-1,2.620408237E-1,1.169338703E0
6.713984308E0,-6.546031833E-1,1.771305501E-1,1.171782136E0
6.723870385E0,-5.861862898E-1,1.319265366E-1,1.136962771E0
6.734051462E0,-5.055520535E-1,1.093245149E-1,1.092980504E0
6.743937231E0,-4.469090104E-1,3.418809548E-2,1.053885102E0
6.753866577E0,-4.133114219E-1,-1.215825379E-1,1.048998237E0
6.763869154E0,-4.542393982E-1,-2.504751086E-1,1.050830841E0
6.773865731E0,-5.287649632E-1,-3.030095398E-1,1.089926124E0
6.783864461E0,-5.623625517E-1,-3.231680691E-1,1.169338703E0
6.793869885E0,-5.379279256E-1,-2.602489591E-1,1.304950714E0
6.803908769E0,-4.884478450E-1,-1.173064858E-1,1.402689219E0
6.814069692E0,-4.206418097E-1,1.812234521E-3,1.435675859E0
6.823915115E0,-3.791029751E-1,1.769473031E-2,1.394137025E0
6.833910192E0,-3.919311464E-1,-5.805255845E-2,1.308005095E0
6.843912692E0,-4.212526679E-1,-2.028276324E-1,1.301896453E0
6.853901692E0,-4.792848825E-1,-3.298875988E-1,1.336104870E0
6.863882000E0,-4.847826660E-1,-4.386216104E-1,1.317778945E0
6.873867769E0,-4.359134436E-1,-5.174232125E-1,1.276850939E0
6.883874538E0,-3.894876838E-1,-4.630562067E-1,1.279294372E0
6.893865692E0,-4.065919220E-1,-2.987334728E-1,1.233479500E0
6.903870077E0,-3.846007586E-1,-1.912211925E-1,1.174836397E0
6.913868500E0,-3.064100146E-1,-2.254296392E-1,1.160175681E0
6.923909461E0,-2.355496436E-1,-2.816292346E-1,1.125967264E0
6.934357192E0,-8.527678996E-2,-2.773531675E-1,9.604226947E-1
6.943910538E0,-7.489208132E-2,-3.579874039E-1,9.683639407E-1
6.953890346E0,-1.854586899E-1,-3.702047169E-1,9.793595076E-1
6.963884654E0,-3.473379910E-1,-3.097290397E-1,9.897441864E-1
6.973911807E0,-4.878369868E-1,-2.932356894E-1,1.039224386E0
6.983911538E0,-5.305975080E-1,-3.158376813E-1,1.219429612E0
6.993872269E0,-4.994434416E-1,-2.889596224E-1,1.350765586E0
7.003863846E0,-4.676784277E-1,-2.926248014E-1,1.299452901E0
7.013873038E0,-4.218635559E-1,-4.300695062E-1,1.243253350E0
7.023866192E0,-3.589444160E-1,-5.821748972E-1,1.230425119E0
7.033874307E0,-3.021339476E-1,-5.748445392E-1,1.182777643E0
7.043864615E0,-2.630385756E-1,-4.990972579E-1,1.159564853E0
7.053867000E0,-2.398256958E-1,-4.954320788E-1,1.187664628E0
7.064443884E0,-2.337170541E-1,-5.045950413E-1,1.110084772E0
7.073864192E0,-2.263866663E-1,-4.270151556E-1,9.695856571E-1
7.083868692E0,-2.660928965E-1,-2.883487642E-1,8.150367737E-1
7.093863615E0,-3.302337527E-1,-1.893885881E-1,6.275011301E-1
7.103864230E0,-3.369532824E-1,-2.235970497E-1,5.126584768E-1
7.113903346E0,-2.703689635E-1,-3.744807541E-1,5.291517973E-1
7.123898077E0,-2.013411969E-1,-4.288477600E-1,5.230431557E-1
7.133916461E0,-1.280373633E-1,-3.268332779E-1,5.456451774E-1
7.143861577E0,-8.222246170E-2,-1.765604168E-1,5.700798035E-1
7.153899307E0,-9.077457339E-2,-1.313563883E-1,5.407582521E-1
7.163868115E0,-1.310916841E-1,-2.920139432E-1,5.755775571E-1
7.173865269E0,-2.300518602E-1,-4.990972579E-1,6.665964723E-1
7.183866307E0,-3.760486543E-1,-5.821748972E-1,7.698327303E-1
7.193863923E0,-4.908913076E-1,-6.139398813E-1,9.329337478E-1
7.203939192E0,-5.623625517E-1,-6.371527910E-1,1.075876236E0
7.213951423E0,-6.252816319E-1,-5.968356729E-1,1.107641220E0
7.223922000E0,-6.778160334E-1,-4.862690866E-1,1.031893969E0
7.233942461E0,-6.924768090E-1,-4.569475651E-1,9.152186513E-1
7.243890730E0,-6.399424076E-1,-5.436903834E-1,7.692218423E-1
7.253902115E0,-5.183802247E-1,-5.711793303E-1,5.804644823E-1
7.263987230E0,-1.885130256E-1,-4.789387286E-1,2.273844033E-1
7.273942307E0,-8.710938692E-2,-4.355672896E-1,5.939646438E-2
7.283891038E0,-5.045747012E-2,-3.799785376E-1,-1.757255942E-2
7.293931884E0,-7.061602175E-2,-2.119906098E-1,8.260934055E-2
7.303886615E0,-1.158200502E-1,-2.567670122E-2,2.255518138E-1
7.313889730E0,-1.536937058E-1,-7.350742817E-3,3.501683176E-1
7.323945346E0,-1.469741762E-1,-8.248716593E-2,4.717305005E-1
7.333917769E0,-6.328564137E-2,-1.295237988E-1,5.676363111E-1
7.343882730E0,6.499606371E-2,-1.362433136E-1,5.456451774E-1
7.353882153E0,1.798387170E-1,-1.050891876E-1,3.538335264E-1
7.363891115E0,2.787988782E-1,-5.927428603E-2,8.932885528E-2
7.373884269E0,3.844785690E-1,4.866562784E-3,-8.293513954E-2
7.384190307E0,4.247956872E-1,1.215418130E-1,-1.996103972E-1
7.393909807E0,4.009719491E-1,2.412714064E-1,-2.551991343E-1
7.403941384E0,3.759264648E-1,3.121317625E-1,-2.026647180E-1
7.414114192E0,3.185051382E-1,2.907514870E-1,-1.128675416E-1
7.423894884E0,2.623055279E-1,1.783522815E-1,1.480329875E-2
7.433914999E0,2.452012897E-1,8.366817236E-2,2.194431573E-1
7.443934307E0,2.555859983E-1,3.052290156E-2,4.039244652E-1
7.453935576E0,2.952922583E-1,-1.590285636E-2,4.961651266E-1
7.463943076E0,3.484375179E-1,-3.911573440E-2,5.340387225E-1
7.473903769E0,3.582113683E-1,-2.463821322E-3,4.705087841E-1
7.483923499E0,2.879618704E-1,5.373578146E-2,2.872492075E-1
7.493879461E0,1.731192023E-1,6.106616184E-2,6.733770669E-2
7.503907884E0,1.199739352E-1,8.488990366E-2,-4.261803254E-2
7.513947076E0,1.218065247E-1,2.088955492E-1,-4.872668535E-2
7.523931922E0,1.315803677E-1,3.445076346E-1,-5.727879703E-2
7.533910846E0,1.639562249E-1,3.610009849E-1,-5.178100988E-2
7.543945499E0,2.342057228E-1,3.164078295E-1,4.168137163E-2
7.553939961E0,3.148399293E-1,2.876971662E-1,1.656870246E-1
7.563884384E0,4.089131951E-1,2.944166958E-1,2.389908433E-1
7.573883615E0,4.828278720E-1,2.785341740E-1,2.133345157E-1
7.583932115E0,5.103168488E-1,1.349808574E-1,7.894414663E-2
7.593896230E0,3.942524195E-1,1.655241251E-1,2.030108497E-2
7.603882615E0,2.171014994E-1,2.033977658E-1,8.016587794E-2
7.613937615E0,2.406808920E-2,2.394388020E-1,2.701449692E-1
7.623920422E0,-1.335351467E-1,3.164078295E-1,4.442415833E-1
7.633887076E0,-1.909564883E-1,3.194621503E-1,5.566407442E-1
7.643884153E0,-1.384220719E-1,2.363844812E-1,6.299445629E-1
7.653937884E0,2.956587635E-2,2.027868927E-1,7.124114037E-1
7.663906807E0,1.877799630E-1,2.754798532E-1,6.665964723E-1
7.673896422E0,3.233920634E-1,3.182404339E-1,4.576806128E-1
7.683882076E0,5.017647147E-1,4.025398195E-1,1.895107627E-1
7.693938461E0,5.823989511E-1,4.245309830E-1,-1.348586828E-1
7.703892192E0,5.744577050E-1,3.585575223E-1,-4.152458310E-1
7.714032845E0,5.237559080E-1,2.492126524E-1,-5.710164905E-1
7.723942576E0,3.942524195E-1,1.465872973E-1,-5.807903409E-1
7.733933422E0,2.525316775E-1,1.844609380E-1,-4.036393762E-1
7.743894192E0,1.297477633E-1,2.589865029E-1,-1.110349447E-1
7.753913999E0,5.131265149E-3,2.424931526E-1,9.849183261E-2
7.763883538E0,-3.762930259E-2,2.119498700E-1,2.683123946E-1
7.773882730E0,-3.090978414E-2,1.276504695E-1,3.862093687E-1
7.783889999E0,-3.396410868E-2,5.740097538E-2,3.715485930E-1
7.793909192E0,1.185078360E-2,5.923357233E-2,2.988556325E-1
7.803879845E0,8.698721230E-2,9.222029150E-2,1.687413454E-1
7.813937691E0,1.444085389E-1,9.527461231E-2,-4.383976385E-2
7.823900461E0,1.920560300E-1,8.366817236E-2,-2.038864493E-1
7.833861422E0,2.030515969E-1,1.270396113E-1,-2.778011560E-1
7.843899807E0,1.737300754E-1,1.838500798E-1,-3.419420123E-1
7.853869807E0,1.639562249E-1,1.814066172E-1,-3.407202661E-1
7.863864153E0,1.804495901E-1,1.850718111E-1,-2.710816264E-1
7.873902884E0,2.445904315E-1,2.449365854E-1,-2.069407851E-1
7.883885961E0,3.795916438E-1,2.339410186E-1,-1.452433914E-1
7.893869038E0,5.561317205E-1,1.991217136E-1,-1.672345400E-1
7.903866345E0,7.375587225E-1,2.693712115E-1,-3.755396008E-1
7.913866499E0,1.218309641E0,4.074267447E-1,-1.077423692E0
7.923863076E0,1.529240131E0,4.911153018E-1,-1.384688973E0
7.933905461E0,1.743653774E0,6.792618036E-1,-1.651026249E0
7.943897230E0,1.802907705E0,8.319781423E-1,-1.723108292E0
7.953861807E0,1.752205849E0,8.704626560E-1,-1.539848685E0
7.963906268E0,1.660576105E0,9.663684964E-1,-1.266181111E0
7.973928114E0,1.572611451E0,1.112365246E0,-9.393682480E-1
7.983886114E0,1.485257745E0,1.109310865E0,-6.443203092E-1
7.993879230E0,1.457768798E0,9.419338703E-1,-4.922148585E-1
8.003882614E0,1.513357639E0,7.733350396E-1,-5.160385966E-1
8.013903884E0,1.630032897E0,7.531765103E-1,-6.742527485E-1
8.023883499E0,1.734490752E0,8.710734844E-1,-8.385754824E-1
8.033895653E0,1.779694796E0,9.437664747E-1,-7.890954018E-1
8.043885499E0,1.764423251E0,9.303274155E-1,-4.983235002E-1
8.053877037E0,1.678902030E0,9.162775278E-1,-2.240450084E-1
8.063895037E0,1.630032897E0,9.352143407E-1,-1.128675416E-1
8.073945268E0,1.691119313E0,8.863451481E-1,-9.454157948E-2
8.083889576E0,1.874378920E0,8.692409396E-1,-1.654019505E-1
8.093933345E0,1.995941162E0,7.794437408E-1,-3.309464157E-1
8.103891768E0,2.071077585E0,5.876320601E-1,-3.889786303E-1
8.113922345E0,2.129720688E0,4.660698473E-1,-4.225762188E-1
8.123941268E0,2.124833584E0,4.288070500E-1,-4.164675474E-1
8.133943114E0,2.061303616E0,4.196440578E-1,-2.875750065E-1
8.143889076E0,1.982501984E0,5.234912038E-1,-1.214196533E-1
8.153879345E0,1.974560738E0,7.116376758E-1,8.444193751E-2
8.163885460E0,1.987999916E0,8.234260082E-1,2.115019113E-1
8.173878153E0,1.964787006E0,8.307564259E-1,1.027678922E-1
8.183946191E0,1.905533075E0,7.531765103E-1,-1.299717575E-1
8.193900499E0,1.784581780E0,6.383338571E-1,-3.675983250E-1
8.203891114E0,1.638584971E0,5.699169636E-1,-4.164675474E-1
8.213941422E0,1.455325365E0,5.149390697E-1,-3.651548922E-1
8.223934768E0,1.240911722E0,4.355265498E-1,-2.051081806E-1
8.233955114E0,8.334645629E-1,2.070629597E-1,2.353256643E-1
8.243938307E0,7.400021553E-1,2.040086240E-1,3.245119750E-1
8.253882807E0,7.045720220E-1,2.247780561E-1,3.959832191E-1
8.263890730E0,7.253414392E-1,2.577647567E-1,3.874311149E-1
8.273882691E0,7.161784172E-1,2.889188826E-1,2.786971033E-1
8.283886114E0,6.257703900E-1,3.878790736E-1,2.713667154E-1
8.293934614E0,5.286428332E-1,4.837848842E-1,3.373401463E-1
8.303945537E0,4.651127756E-1,5.088304281E-1,3.819333017E-1
8.313919883E0,4.528954923E-1,4.740110934E-1,4.393546581E-1
8.323884460E0,4.987103641E-1,4.453004003E-1,4.552371502E-1
8.333893807E0,6.135530472E-1,4.923370183E-1,4.265264869E-1
8.343931653E0,7.711563110E-1,6.823161244E-1,3.917071521E-1
8.353881230E0,8.285776377E-1,8.814582229E-1,3.031316996E-1
8.363970960E0,7.546629310E-1,8.661865592E-1,2.548733354E-1
8.373890999E0,6.214942932E-1,6.511620283E-1,2.469320893E-1
8.383934153E0,4.657236636E-1,3.664987981E-1,1.974520087E-1
8.393887768E0,3.209486008E-1,1.050484627E-1,1.540805846E-1
8.403979422E0,2.543642819E-1,-4.522438720E-2,1.699630767E-1
8.413911345E0,2.726902366E-1,-8.981755376E-2,1.485827863E-1
8.423953614E0,3.270572424E-1,-6.355034560E-2,1.369763464E-1
8.433950922E0,3.783699274E-1,9.753484279E-3,1.913433671E-1
8.443888960E0,4.034154117E-1,6.412048638E-2,1.998954713E-1
8.453882499E0,3.808133900E-1,1.026050001E-1,2.457103729E-1
8.463931729E0,3.734830022E-1,2.876971662E-1,3.562769890E-1
8.473942922E0,5.158146620E-1,5.479257703E-1,5.847405195E-1
8.483891191E0,7.668802738E-1,7.794437408E-1,9.017795920E-1
8.493878460E0,9.538050294E-1,9.926356673E-1,1.059993744E0
8.503879806E0,9.947329760E-1,8.875668645E-1,1.043500423E0
8.513882614E0,9.788504839E-1,5.179933906E-1,9.469836354E-1
8.523892883E0,1.010615468E0,9.527461231E-2,8.174802065E-1
8.533916537E0,1.068036795E0,-2.009950280E-1,6.708725691E-1
8.543879845E0,1.110797405E0,-3.286658525E-1,6.036773920E-1
8.553883037E0,1.118738651E0,-3.286658525E-1,5.951252580E-1
8.563864114E0,1.055819511E0,-1.912211925E-1,5.462560654E-1
8.573899806E0,1.028941393E0,-1.631213874E-1,5.584733486E-1
8.583903614E0,1.037493587E0,-1.527366787E-1,6.116186380E-1
8.593862076E0,1.068647623E0,-1.698409021E-1,6.788138151E-1
8.603900806E0,1.092471480E0,-2.156557888E-1,7.258504033E-1
8.613880499E0,1.129734159E0,-1.979407072E-1,7.637240887E-1
8.623864960E0,1.181046844E0,-1.484606117E-1,7.893804312E-1
8.633866960E0,1.254961610E0,-1.307455152E-1,7.979325056E-1
8.643871345E0,1.361863017E0,-2.040493488E-1,7.765522599E-1
8.653876499E0,1.515801072E0,-4.270151556E-1,7.344025373E-1
8.663916883E0,1.669739127E0,-6.340984702E-1,7.203526497E-1
8.673918883E0,1.772364497E0,-6.340984702E-1,7.399002910E-1
8.683869806E0,1.839559674E0,-5.070384741E-1,7.197417617E-1
8.693912999E0,1.911030889E0,-4.105218053E-1,6.775920391E-1
8.703919152E0,1.971506476E0,-4.325129688E-1,6.036773920E-1
8.713914037E0,2.033814669E0,-4.856582284E-1,5.230431557E-1
8.723940922E0,2.082073212E0,-4.648888111E-1,4.796717465E-1
8.733892806E0,2.096733809E0,-3.702047169E-1,5.053280592E-1
8.743937499E0,2.082073212E0,-1.698409021E-1,5.871840119E-1
8.753880460E0,2.118114233E0,1.013832688E-1,6.953071356E-1
8.763885229E0,2.232346058E0,2.357736230E-1,7.453981042E-1
8.773883191E0,2.393614292E0,6.167702749E-2,7.307373285E-1
8.783884037E0,2.539000273E0,-2.724662423E-1,7.050809860E-1
8.793887498E0,2.608639002E0,-5.100928545E-1,6.409401298E-1
8.803955652E0,2.559769630E0,-6.493700743E-1,5.315952897E-1
8.813894845E0,2.436985731E0,-7.776517868E-1,4.436306953E-1
8.823888229E0,2.284880400E0,-8.173580170E-1,3.794898689E-1
8.833943768E0,2.148046494E0,-5.968356729E-1,3.226794004E-1
8.843942498E0,2.038090944E0,-1.790038794E-1,3.190141916E-1
8.853887845E0,1.967230439E0,1.624697894E-1,4.002592862E-1
8.863935037E0,1.982501984E0,3.506162763E-1,5.260974765E-1
8.873936537E0,2.060081959E0,3.561140597E-1,6.000121832E-1
8.883881883E0,2.212187529E0,-9.470447153E-2,5.755775571E-1
8.893992114E0,2.229291677E0,-3.378288448E-1,4.741739631E-1
8.903883614E0,2.138883591E0,-5.314731002E-1,3.373401463E-1
8.913891268E0,2.000828028E0,-5.803422928E-1,2.365473807E-1
8.923922383E0,1.863383412E0,-5.015407205E-1,2.615928650E-1
8.933884652E0,1.738766909E0,-2.810183764E-1,3.336749673E-1
8.943884691E0,1.620869875E0,9.753484279E-3,3.605530262E-1
8.953882921E0,1.510303259E0,2.033977658E-1,4.112548530E-1
8.963900768E0,1.451660156E0,2.180585265E-1,4.778391719E-1
8.973892537E0,1.474873066E0,1.136005670E-1,4.650110006E-1
8.983882191E0,1.539013863E0,2.441424876E-2,4.448524415E-1
8.993930806E0,1.584217906E0,-5.377650261E-2,4.320242703E-1
9.003885037E0,1.567724586E0,-1.936646402E-1,3.764355183E-1
9.013913960E0,1.499918580E0,-2.675793469E-1,3.330641091E-1
9.023883998E0,1.383854151E0,-1.295237988E-1,3.367292881E-1
9.033914575E0,1.201816320E0,9.955066442E-2,3.293989003E-1
9.043892575E0,1.022832751E0,2.052303553E-1,2.719775736E-1
9.053894652E0,8.835555315E-1,2.088955492E-1,2.243300825E-1
9.063889075E0,8.169711828E-1,1.905695945E-1,2.322713286E-1
9.073937229E0,8.530122638E-1,1.239852756E-1,2.713667154E-1
9.083959998E0,1.000230789E0,3.540982679E-2,3.403944671E-1
9.093943844E0,1.134010315E0,-4.644611850E-2,4.033136070E-1
9.103889767E0,1.204259753E0,-8.615235984E-2,4.454632998E-1
9.113905575E0,1.210979342E0,-7.821111381E-2,4.729522467E-1
9.123946344E0,1.181657791E0,-4.827871546E-2,4.570697546E-1
9.133889152E0,1.132788539E0,-2.750929631E-2,4.051461816E-1
9.143886191E0,1.061928153E0,1.647300273E-2,3.520009220E-1
9.153904729E0,9.654114842E-1,8.061385155E-2,2.890818119E-1
9.163896114E0,8.420166969E-1,1.710219085E-1,2.279952765E-1
9.174110960E0,7.125132680E-1,2.626516819E-1,1.656870246E-1
9.183897537E0,6.166074276E-1,2.883080244E-1,8.260934055E-2
9.193896883E0,5.775120258E-1,2.259997725E-1,-6.576984189E-3
9.203889191E0,5.933945179E-1,9.466375411E-2,-9.820677340E-2
9.213900306E0,5.518556833E-1,1.783522815E-1,-9.637417644E-2
9.223918344E0,5.066516399E-1,3.909333944E-1,-1.263065785E-1
9.233921114E0,4.706105888E-1,5.308215618E-1,-1.556281000E-1
9.243887267E0,3.918089569E-1,6.053470969E-1,-2.093842477E-1
9.253956267E0,3.343876302E-1,5.864102840E-1,-2.912401855E-1
9.263927075E0,2.879618704E-1,4.807305634E-1,-3.657657504E-1
9.273886344E0,2.378709316E-1,3.249599338E-1,-3.657657504E-1
9.283888652E0,2.024407387E-1,1.966782510E-1,-3.621005416E-1
9.293962460E0,1.291369051E-1,1.099353731E-1,-4.231870770E-1
9.303897383E0,-1.588251442E-3,5.801184103E-2,-4.830518663E-1
9.313993998E0,-9.566149861E-2,7.817038894E-2,-4.964908957E-1
9.323885806E0,-1.005484164E-1,2.137824744E-1,-5.520796776E-1
9.338847306E0,-1.133765876E-1,4.043724239E-1,-7.866519094E-1
9.353947844E0,-3.705508709E-1,4.233092368E-1,-9.179879427E-1
9.363882498E0,-4.786740243E-1,2.626516819E-1,-9.833505154E-1
9.373994690E0,-5.556430221E-1,1.830559596E-2,-1.081699729E0
9.383958767E0,-5.477017760E-1,-1.820582002E-1,-1.155003667E0
9.393889037E0,-4.566828609E-1,-2.877379060E-1,-1.234416127E0
9.403882383E0,-2.941927016E-1,-4.551149607E-1,-1.388965011E0
9.413894460E0,-1.390329301E-1,-6.536461711E-1,-1.488536000E0
9.423877652E0,-2.037846595E-1,-6.188268065E-1,-1.462268829E0
9.434123806E0,-4.841718078E-1,-2.174883932E-1,-1.252131224E0
9.443887036E0,-7.480655313E-1,2.198911309E-1,-1.004730821E0
9.453887152E0,-8.836776614E-1,2.931949496E-1,-9.961786866E-1
9.463875536E0,-9.062796831E-1,1.276504695E-1,-1.173329592E0
9.473889767E0,-8.506909013E-1,-1.570127308E-1,-1.293670058E0
9.483952421E0,-6.906442046E-1,-4.031914175E-1,-1.357200027E0
9.493877498E0,-5.489234924E-1,-6.267680526E-1,-1.502585888E0
9.503879575E0,-3.619987667E-1,-8.399600387E-1,-1.565505028E0
9.513878998E0,-1.762957126E-1,-9.407528043E-1,-1.506862044E0
9.523955960E0,-1.958433986E-1,-9.468614459E-1,-1.436001658E0
9.533936806E0,-5.104389787E-1,-5.888944268E-1,-1.263126731E0
9.543877190E0,-4.994434416E-1,-4.031914175E-1,-1.272900581E0
9.553880421E0,-4.010941386E-1,-1.380759031E-1,-1.315661192E0
9.563878190E0,-2.923601270E-1,4.274020717E-2,-1.306498170E0
9.573885229E0,-2.257758081E-1,-1.289129257E-1,-1.324213266E0
9.583939190E0,-1.164309159E-1,-4.538932443E-1,-1.398738861E0
9.593928690E0,9.248499572E-2,-7.629910111E-1,-1.548400879E0
9.603880036E0,2.959031165E-1,-9.401419759E-1,-1.705393195E0
9.613892383E0,3.966958821E-1,-9.395310879E-1,-1.792136073E0
9.623883498E0,4.290717542E-1,-8.741685152E-1,-1.789692640E0
9.633938459E0,3.783699274E-1,-7.098457217E-1,-1.692565084E0
9.643880575E0,2.280970812E-1,-5.210884213E-1,-1.531296611E0
9.653947613E0,2.956587635E-2,-3.469918370E-1,-1.343760967E0
9.663897729E0,-1.610240936E-1,-2.633032799E-1,-1.196542501E0
9.673905613E0,-2.532647252E-1,-2.541402876E-1,-1.135455966E0
9.683890498E0,-1.824043691E-1,-1.686191708E-1,-1.187379479E0
9.693889459E0,4.239404947E-2,-2.812016010E-2,-1.332765341E0
9.703883613E0,3.618765771E-1,1.105462462E-1,-1.527631402E0
9.713886575E0,6.905220747E-1,1.673567146E-1,-1.699895382E0
9.723884421E0,8.646187186E-1,1.245961487E-1,-1.777475238E0
9.733925152E0,8.291885257E-1,1.307048053E-1,-1.771977544E0
9.743884882E0,6.550918818E-1,1.502524912E-1,-1.730438709E0
9.753936767E0,4.443433583E-1,1.679675728E-1,-1.635143638E0
9.763941421E0,2.800206244E-1,2.883080244E-1,-1.484870791E0
9.773890459E0,2.177123725E-1,3.982637823E-1,-1.337041497E0
9.783949382E0,2.506991029E-1,4.624046385E-1,-1.241135597E0
9.793911229E0,3.679852188E-1,5.283781290E-1,-1.206927180E0
9.803887575E0,4.773301184E-1,5.021108985E-1,-1.191044688E0
9.813891036E0,4.583932757E-1,2.736472785E-1,-1.167220950E0
9.823943575E0,3.569896519E-1,4.457280412E-2,-1.160501361E0
9.833885536E0,2.555859983E-1,1.402954012E-2,-1.183714271E0
9.843886267E0,1.798387170E-1,1.459764242E-1,-1.228918314E0
9.853897152E0,2.470338941E-1,1.978999823E-1,-1.374915123E0
9.863886844E0,4.418999255E-1,-3.850486875E-2,-1.491590381E0
9.873889690E0,6.196617484E-1,-1.808364689E-1,-1.593604803E0
9.883909536E0,6.740287542E-1,-1.044783145E-1,-1.595437407E0
9.893886805E0,6.679200530E-1,-5.377650261E-2,-1.465323210E0
9.903899344E0,6.019466519E-1,-8.615235984E-2,-1.263126731E0
9.913943498E0,4.718323052E-1,-4.644611850E-2,-1.137899399E0
9.923937344E0,2.940705121E-1,8.000299335E-2,-1.154392719E0
9.933900652E0,8.943067491E-2,2.052303553E-1,-1.228918314E0
9.943941075E0,-8.100073040E-2,3.188512921E-1,-1.318104625E0
9.953914344E0,-1.720196605E-1,3.884899318E-1,-1.326045871E0
9.963922190E0,-2.734232843E-1,3.041905165E-1,-1.288783073E0
9.973891575E0,-3.540574908E-1,5.068145320E-2,-1.255796432E0
9.983897151E0,-3.540574908E-1,-1.704517603E-1,-1.258239865E0
9.993940805E0,-2.605951130E-1,-2.975117266E-1,-1.295502663E0
1.000389484E1,-3.579670563E-2,-5.119253993E-1,-1.311385155E0
1.001388319E1,3.068986833E-1,-7.593258619E-1,-1.274122357E0
1.002390023E1,5.402492285E-1,-7.935342789E-1,-1.191655517E0
1.003388277E1,4.657236636E-1,-5.045950413E-1,-1.095749736E0
1.004390031E1,2.085493803E-1,-2.358143479E-1,-9.760201573E-1
1.005390423E1,-1.310916841E-1,-1.895718277E-2,-8.678970337E-1
1.006392158E1,-4.236961305E-1,1.233744174E-1,-7.768780589E-1
1.007388130E1,-6.448293328E-1,1.905695945E-1,-7.280088663E-1
1.008427019E1,-8.567995429E-1,2.394388020E-1,-7.182350159E-1
1.009410507E1,-1.009515882E0,3.023579419E-1,-7.328957915E-1
1.010389496E1,-9.954659939E-1,3.121317625E-1,-7.897062302E-1
1.011388607E1,-8.122063875E-1,1.319265366E-1,-8.740056753E-1
1.012389707E1,-4.878369868E-1,-1.893885881E-1,-9.974004626E-1
1.013387927E1,-4.923573881E-2,-6.108855605E-1,-1.139121056E0
1.014388761E1,3.740938604E-1,-1.020776153E0,-1.247855186E0
1.015395669E1,7.613824606E-1,-1.337204456E0,-1.320548058E0
1.016387992E1,1.094914913E0,-1.540622592E0,-1.371860743E0
1.017390765E1,1.177381754E0,-1.470983863E0,-1.203261971E0
1.018388804E1,4.773301184E-1,-5.198666453E-1,-8.379645944E-1
1.019388411E1,2.712241374E-2,-2.626924217E-1,-5.074865222E-1
1.020388961E1,-3.949854672E-1,-1.014239937E-1,-3.144530654E-1
1.021388504E1,-6.313902736E-1,-1.242090017E-3,-2.637512386E-1
1.022388369E1,-7.553959489E-1,1.074919254E-1,-2.411492318E-1
1.023390934E1,-7.908261418E-1,1.936239153E-1,-1.989995390E-1
1.024393357E1,-7.639480829E-1,2.498235106E-1,-1.556281000E-1
1.025395707E1,-7.291287184E-1,2.712038159E-1,-1.208087876E-1
1.026391004E1,-6.753726006E-1,2.577647567E-1,-1.122566760E-1
1.027388750E1,-6.020687819E-1,2.449365854E-1,-1.287500262E-1
1.028388704E1,-5.403713584E-1,1.569720060E-1,-1.739540547E-1
1.029394007E1,-4.768414199E-1,-7.332418859E-2,-2.350405753E-1
1.030391242E1,-3.717725873E-1,-2.901813686E-1,-3.034574986E-1
1.031391011E1,-2.789210677E-1,-3.549330831E-1,-3.596570790E-1
1.032393119E1,-2.532647252E-1,-2.846835554E-1,-3.706526756E-1
1.033388273E1,-3.235142529E-1,-8.615235984E-2,-3.193399906E-1
1.034426961E1,-4.548502564E-1,2.406605482E-1,-2.863532603E-1
1.035389169E1,-5.739689469E-1,5.314324498E-1,-2.264884710E-1
1.036388530E1,-7.138571143E-1,6.920899749E-1,-1.153110042E-1
1.037388642E1,-7.975456715E-1,8.356433511E-1,-3.834197670E-2
1.038395307E1,-8.079303503E-1,9.859161973E-1,-3.040073067E-2
1.039388177E1,-7.957130671E-1,1.122139096E0,-1.110349447E-1
1.040387884E1,-7.144679427E-1,1.111143470E0,-2.625295222E-1
1.041389250E1,-4.902804494E-1,8.790147305E-1,-4.726671576E-1
1.042388038E1,-2.129476368E-1,4.886718094E-1,-6.693658233E-1
1.043394188E1,1.246164925E-2,-3.361794725E-2,-7.744346261E-1
1.044395323E1,1.749517918E-1,-5.840075016E-1,-8.263581395E-1
1.045389850E1,3.594331145E-1,-9.102095366E-1,-8.459058404E-1
1.046394354E1,5.439144373E-1,-1.059871554E0,-7.890954018E-1
1.047394327E1,5.707924962E-1,-1.146614432E0,-6.974655986E-1
1.048389369E1,4.425107837E-1,-1.011613250E0,-5.954511166E-1
1.049389188E1,1.999972761E-1,-6.774699092E-1,-5.080973506E-1
1.050402411E1,-3.119077981E-1,1.184874922E-1,-3.675983250E-1
1.051389396E1,-4.579046071E-1,4.422460794E-1,-3.669874668E-1
1.052389196E1,-5.330410004E-1,6.523837447E-1,-3.902003467E-1
1.053388311E1,-5.519778132E-1,7.036964297E-1,-3.853134215E-1
1.054390088E1,-5.403713584E-1,6.016819477E-1,-3.504941165E-1
1.055389265E1,-5.250997543E-1,3.823812902E-1,-3.285029531E-1
1.056388488E1,-5.061629415E-1,1.178766340E-1,-3.297246993E-1
1.057394423E1,-4.878369868E-1,-1.399085075E-1,-3.370550871E-1
1.058395900E1,-4.823392034E-1,-3.708155751E-1,-3.474397957E-1
1.059392265E1,-4.670675695E-1,-5.754553676E-1,-3.682092130E-1
1.060394657E1,-4.059810638E-1,-7.318369150E-1,-3.847025633E-1
1.061389030E1,-3.137404025E-1,-8.436252475E-1,-4.085263014E-1
1.062391273E1,-2.221106142E-1,-9.554135799E-1,-4.378478527E-1
1.063388384E1,-1.207069755E-1,-1.069645405E0,-4.390695691E-1
1.064389165E1,-1.747074723E-2,-1.106908202E0,-3.871460259E-1
1.065388984E1,9.187413007E-2,-1.069645405E0,-2.839097977E-1
1.066388411E1,2.048842013E-1,-9.315898418E-1,-1.855604947E-1
1.067395196E1,2.177123725E-1,-7.269499898E-1,-1.244739816E-1
1.068389211E1,1.053131744E-1,-5.271970630E-1,-7.499389350E-2
1.069391542E1,-5.473352969E-2,-3.243898153E-1,-3.284418955E-2
1.070389015E1,-1.964542717E-1,-1.264694631E-1,-3.284418955E-2
1.071388892E1,-2.954144478E-1,3.540982679E-2,-1.024217624E-2
1.072389038E1,-3.595553041E-1,1.245961487E-1,-2.734640241E-2
1.073393634E1,-4.108679593E-1,1.252070069E-1,-4.750495404E-2
1.074389654E1,-4.426329732E-1,5.495751277E-2,-6.338745356E-2
1.075389227E1,-4.524067938E-1,-8.737409115E-2,-8.476773649E-2
1.076403927E1,-4.585154653E-1,-2.712445259E-1,-1.275282949E-1
1.077389673E1,-4.731762409E-1,-4.123544097E-1,-1.831170321E-1
1.078390504E1,-4.829500616E-1,-4.746626616E-1,-2.258775979E-1
1.079388427E1,-4.884478450E-1,-4.612236321E-1,-2.344297171E-1
1.080388950E1,-4.511850774E-1,-4.202956557E-1,-2.118276954E-1
1.081388627E1,-2.929709852E-1,-2.907922268E-1,-1.837279052E-1
1.082402446E1,4.728096724E-2,-3.667227551E-2,-1.623476148E-1
1.083389769E1,1.584584415E-1,1.830559596E-2,-1.214196533E-1
1.084388977E1,2.134363055E-1,7.939212024E-2,-8.354600519E-2
1.085388646E1,1.651779562E-1,1.313156635E-1,-6.827437878E-2
1.086388654E1,6.010913849E-2,1.581937373E-1,-5.605706945E-2
1.087395454E1,-3.335324302E-2,1.581937373E-1,-4.200716689E-2
1.088390084E1,-7.061602175E-2,1.062701941E-1,-2.001602016E-2
1.089388484E1,-3.579670563E-2,3.602069244E-2,6.251185201E-3
1.090392407E1,4.483751208E-2,-2.078977786E-2,1.785762608E-2
1.091389261E1,1.071457639E-1,-7.393505424E-2,-1.207477134E-2
1.092389719E1,1.541823745E-1,-1.173064858E-1,-8.537860215E-2
1.093388442E1,2.977357209E-1,-2.009950280E-1,-2.099951059E-1
1.094388400E1,5.897293091E-1,-2.755205929E-1,-3.816482425E-1
1.095390800E1,9.391442537E-1,-3.799785376E-1,-5.410841107E-1
1.096388650E1,1.275120139E0,-5.119253993E-1,-6.204965711E-1
1.097389123E1,1.471818686E0,-6.041660905E-1,-6.522615552E-1
1.098393838E1,1.466320992E0,-6.133290529E-1,-6.504289508E-1
1.099391784E1,1.334374070E0,-5.516316295E-1,-6.131662130E-1
1.100395227E1,1.204259753E0,-4.636670947E-1,-5.930076241E-1
1.101389142E1,1.146838427E0,-3.555439413E-1,-6.198857427E-1
1.102388569E1,1.200594544E0,-2.681902051E-1,-6.595919728E-1
1.103395311E1,1.360641241E0,-2.565837502E-1,-6.870809197E-1
1.104394877E1,1.548787713E0,-3.133942485E-1,-6.986873150E-1
1.105390227E1,1.680734634E0,-4.257934391E-1,-6.748635769E-1
1.106390538E1,1.779694796E0,-5.565185547E-1,-6.296595335E-1
1.107386527E1,1.885374546E0,-6.670851707E-1,-6.076683998E-1
1.108386542E1,1.989221573E0,-7.568823695E-1,-6.168313622E-1
1.109390054E1,2.080851316E0,-8.271318674E-1,-6.290487051E-1
1.110386384E1,2.177978992E0,-8.827205896E-1,-6.608136892E-1
1.111386723E1,2.291599989E0,-9.535809755E-1,-7.310631871E-1
1.112386507E1,2.402777433E0,-1.029939175E0,-8.135300279E-1
1.113390623E1,2.497461557E0,-1.080030203E0,-8.959968090E-1
1.114390000E1,2.579928398E0,-1.117903829E0,-9.644137025E-1
1.115386354E1,2.726536036E0,-1.103853941E0,-1.100025773E0
1.116386284E1,2.749748945E0,-1.042767406E0,-1.173940420E0
1.117389946E1,2.743640184E0,-9.401419759E-1,-1.242968202E0
1.118391034E1,2.708820820E0,-7.953668833E-1,-1.292448282E0
1.119389334E1,2.641014814E0,-6.084421277E-1,-1.315050364E0
1.120394742E1,2.538389444E0,-3.983044922E-1,-1.321159005E0
1.121393711E1,2.418049097E0,-2.028276324E-1,-1.337041497E0
1.122389304E1,2.275717497E0,-7.271332294E-2,-1.398128033E0
1.123388880E1,2.101009846E0,-4.583525285E-2,-1.470210075E0
1.124404992E1,1.932411194E0,-1.038674563E-1,-1.508694530E0
1.125391127E1,1.821844578E0,-2.150449306E-1,-1.498920798E0
1.126388111E1,1.778473139E0,-3.518787324E-1,-1.462268829E0
1.127388607E1,1.758314490E0,-4.905451536E-1,-1.442110300E0
1.128388511E1,1.626978517E0,-5.809531808E-1,-1.465323210E0
1.129387884E1,1.509081483E0,-3.750916123E-1,-1.399960518E0
1.130390188E1,1.418673515E0,-4.644611850E-2,-1.242357373E0
1.131389157E1,1.305663347E0,2.492126524E-1,-1.085364938E0
1.132389280E1,1.238468170E0,4.220875204E-1,-1.005952477E0
1.133388157E1,1.260459423E0,4.569068253E-1,-1.021224141E0
1.134388707E1,1.361252189E0,4.422460794E-1,-1.095138788E0
1.135389630E1,1.495642543E0,4.031507075E-1,-1.209370613E0
1.136388396E1,1.592770100E0,3.377881050E-1,-1.308941603E0
1.137389377E1,1.557339907E0,2.461583316E-1,-1.321159005E0
1.138394134E1,1.370415092E0,1.563611329E-1,-1.226474881E0
1.139388500E1,1.069258571E0,1.594154686E-1,-1.041382670E0
1.140387984E1,7.076263428E-1,2.913623452E-1,-8.263581395E-1
1.141395415E1,3.826459944E-1,5.253237486E-1,-6.504289508E-1
1.142389346E1,1.462411284E-1,8.338107467E-1,-4.861061871E-1
1.143390096E1,2.467895485E-2,1.106867433E0,-3.065118194E-1
1.144388996E1,1.368338056E-2,1.317005038E0,-1.586824208E-1
1.145395992E1,1.395216137E-1,1.430626035E0,-1.092023477E-1
1.146396696E1,4.021936655E-1,1.387254596E0,-1.849496365E-1
1.147389519E1,9.513615370E-1,9.510968328E-1,-6.168313622E-1
1.148388180E1,1.072923779E0,7.000312209E-1,-8.013126850E-1
1.149394354E1,1.074756384E0,4.947805107E-1,-8.972185254E-1
1.150390150E1,1.011226296E0,4.043724239E-1,-9.094358683E-1
1.151389504E1,9.690766335E-1,4.617937505E-1,-8.184168935E-1
1.152392177E1,9.739636183E-1,5.589213371E-1,-6.235508919E-1
1.153394857E1,1.030773997E0,6.786509752E-1,-4.195218980E-1
1.154389334E1,1.071702003E0,8.124304414E-1,-2.924619019E-1
1.155393123E1,1.079643250E0,8.277020454E-1,-2.380949110E-1
1.156388677E1,1.152947068E0,6.450533867E-1,-2.735250890E-1
1.157388123E1,1.291613460E0,3.109100461E-1,-4.433456361E-1
1.158391261E1,1.377134681E0,-6.904813647E-2,-6.925786734E-1
1.159388815E1,1.320324183E0,-3.256115317E-1,-8.825577497E-1
1.160393730E1,1.128512502E0,-3.543221951E-1,-9.216531515E-1
1.161404234E1,8.615643382E-1,-2.364252210E-1,-8.349102736E-1
1.162388715E1,6.379876733E-1,-1.625105143E-1,-6.760852933E-1
1.163388142E1,5.506339669E-1,-1.545692682E-1,-4.971017838E-1
1.164388342E1,5.188689828E-1,-1.991624385E-1,-3.346116245E-1
1.165388788E1,4.394564629E-1,-2.840726972E-1,-2.008321285E-1
1.166388669E1,3.704286814E-1,-3.732590377E-1,-8.660033345E-2
1.167391346E1,3.850894570E-1,-4.569475651E-1,-2.245948091E-2
1.168388404E1,4.290717542E-1,-4.728300571E-1,-3.834197670E-2
1.169394138E1,3.759264648E-1,-3.537113369E-1,-1.611258835E-1
1.170395419E1,2.415361106E-1,-1.979407072E-1,-3.138422072E-1
1.171388600E1,2.024407387E-1,-1.411302388E-1,-3.651548922E-1
1.172392200E1,3.356093466E-1,-2.003841698E-1,-3.132313192E-1
1.173409465E1,6.111096144E-1,-3.378288448E-1,-2.099951059E-1
1.174389480E1,9.257051945E-1,-4.545041025E-1,-6.460918486E-2
1.175388173E1,1.143173218E0,-5.968356729E-1,5.206608027E-2
1.176388504E1,1.173105597E0,-7.965885997E-1,4.229223728E-2
1.177388246E1,9.788504839E-1,-8.124710917E-1,-7.316129655E-2
1.178396165E1,5.866749883E-1,-6.860219836E-1,-1.641802192E-1
1.179394342E1,1.700648814E-1,-3.659286499E-1,-3.223332390E-2
1.180394630E1,-5.778785422E-2,-2.242079079E-1,9.177231789E-2
1.181389296E1,7.476990670E-2,-1.667865813E-1,1.675196141E-1
1.182389080E1,2.659707069E-1,-9.653706849E-2,1.834021062E-1
1.183391488E1,4.205196202E-1,-1.895718277E-2,1.821803749E-1
1.184389323E1,5.029864907E-1,2.685771137E-2,2.139453739E-1
1.185388780E1,5.243667364E-1,2.746857330E-2,2.432669103E-1
1.186395084E1,4.852713645E-1,-7.821111381E-2,1.852347106E-1
1.187388654E1,3.429397345E-1,-1.466280222E-1,3.740531579E-2
1.188389627E1,7.721336931E-2,-1.234151423E-1,-1.458542496E-1
1.189388130E1,-2.331061810E-1,-6.538294256E-2,-2.845206559E-1
1.190388330E1,-4.670675695E-1,5.251405016E-2,-2.839097977E-1
1.191388615E1,-5.214345455E-1,1.930130571E-1,-1.550172269E-1
1.192394130E1,-3.748269081E-1,2.223345935E-1,3.435098752E-2
1.193388796E1,-1.463633180E-1,1.569720060E-1,1.748500019E-1
1.194388992E1,-5.864309147E-3,7.145087421E-2,2.029497921E-1
1.195418965E1,6.963862106E-3,1.402954012E-2,1.699630767E-1
1.196394546E1,-6.328564137E-2,3.785328194E-2,1.265916377E-1
1.197391161E1,-1.756848544E-1,9.893980622E-2,6.917030364E-2
1.198405773E1,-3.003013730E-1,1.215418130E-1,1.602502912E-2
1.199387700E1,-3.858225048E-1,1.050484627E-1,1.975129358E-3
1.200388630E1,-3.400076032E-1,3.113376722E-2,1.015461609E-1
1.201386700E1,-1.145983189E-1,-1.014239937E-1,3.385618925E-1
1.202386773E1,1.663996875E-1,-2.510859668E-1,5.340387225E-1
1.203386557E1,3.698178232E-1,-4.190739095E-1,5.829079747E-1
1.204386307E1,4.461759627E-1,-4.954320788E-1,5.114367008E-1
1.205386450E1,3.685960770E-1,-3.854763210E-1,3.281771839E-1
1.206389911E1,1.957212240E-1,-2.810183764E-1,7.222463191E-2
1.207386280E1,7.354817539E-2,-3.824220002E-1,-1.537955105E-1
1.208386511E1,1.016479805E-1,-6.005008817E-1,-2.692490220E-1
1.209393915E1,2.397035062E-1,-7.000719309E-1,-2.680273056E-1
1.210393111E1,3.728721440E-1,-6.762481332E-1,-1.605150253E-1
1.211392773E1,4.199087620E-1,-6.640308499E-1,6.306164712E-2
1.212388519E1,2.989574373E-1,-4.703865945E-1,5.896274447E-1
1.213387434E1,2.390926480E-1,-3.683721125E-1,8.565756083E-1
1.214393088E1,2.543642819E-1,-2.016059011E-1,1.003183246E0
1.215388230E1,3.178942800E-1,-6.129011512E-3,9.451510310E-1
1.216392723E1,3.374419510E-1,2.663168907E-1,7.105787992E-1
1.217393350E1,1.712866127E-1,4.856174886E-1,4.271373451E-1
1.218394565E1,-2.147802263E-1,4.953913391E-1,2.493755519E-1
1.219393830E1,-7.346265316E-1,3.701639771E-1,2.212757617E-1
1.220394946E1,-1.255083680E0,2.229454517E-1,2.933578491E-1
1.221394684E1,-1.630765796E0,1.007723957E-1,3.855985105E-1
1.222391311E1,-1.763934493E0,5.556837842E-2,4.100331068E-1
1.223388134E1,-1.630765796E0,1.252070069E-1,3.379510045E-1
1.224389161E1,-1.273409724E0,1.832392067E-1,2.365473807E-1
1.225389134E1,-8.323649764E-1,2.406605482E-1,2.041715235E-1
1.226388511E1,-4.707327783E-1,3.261816800E-1,2.231083512E-1
1.227389715E1,-3.155730069E-1,2.925840914E-1,2.463212311E-1
1.228388892E1,-4.102571011E-1,1.716327667E-1,2.884709239E-1
1.229389523E1,-6.961420178E-1,8.000299335E-2,3.611638844E-1
1.230388715E1,-1.076711059E0,-3.728314117E-2,4.601240754E-1
1.231388892E1,-1.454836607E0,-1.881668568E-1,5.694689155E-1
1.232390619E1,-1.718119621E0,-2.724662423E-1,6.110077500E-1
1.233388538E1,-1.823799253E0,-2.553620338E-1,5.407582521E-1
1.234388530E1,-1.817690611E0,-1.276911944E-1,4.222504199E-1
1.235388376E1,-1.804862380E0,1.759088337E-1,3.080186248E-1
1.236388676E1,-1.909931302E0,5.625865459E-1,2.389908433E-1
1.237572684E1,-2.151222944E0,8.661865592E-1,2.524298728E-1
1.238401265E1,-2.440162182E0,1.051278710E0,3.373401463E-1
1.239388484E1,-2.681453943E0,1.107478261E0,4.668435752E-1
1.240389419E1,-2.818898678E0,9.578163624E-1,5.719123483E-1
1.241388126E1,-2.795685768E0,6.597141027E-1,6.012338996E-1
1.242388173E1,-2.595932961E0,3.805486858E-1,5.102149844E-1
1.243394461E1,-2.355862856E0,2.461583316E-1,3.177924752E-1
1.244394630E1,-2.453601360E0,4.813414514E-1,-9.270898998E-2
1.245388311E1,-2.901976347E0,6.762074828E-1,-2.472578883E-1
1.246393161E1,-3.421211958E0,8.173173666E-1,-2.949053645E-1
1.247392677E1,-3.768794298E0,7.690590024E-1,-2.081625164E-1
1.248386880E1,-3.715038061E0,5.540344715E-1,-1.006502360E-1
1.249388688E1,-3.253834724E0,2.767015994E-1,-7.682649046E-2
1.250392273E1,-2.567222357E0,1.771305501E-1,-1.415781975E-1
1.251389611E1,-1.859840274E0,1.960673779E-1,-2.900184393E-1
1.252387888E1,-1.252640247E0,2.107281387E-1,-5.074865222E-1
1.253387834E1,-7.132462263E-1,5.528126955E-1,-8.123082519E-1
1.254405377E1,-2.801428139E-1,6.865922213E-1,-1.081088901E0
1.255392588E1,-3.946189582E-2,2.883080244E-1,-1.186157703E0
1.256387415E1,-1.640784144E-1,-2.639141381E-1,-1.010839462E0
1.257413688E1,-4.444655478E-1,-7.904799581E-1,-7.237328291E-1
1.258388865E1,-6.692639589E-1,-7.678779364E-1,-5.930076241E-1
1.259394415E1,-9.013927579E-1,-5.662924051E-1,-5.966728330E-1
1.260387938E1,-1.192164540E0,-4.807713032E-1,-6.540941596E-1
1.261388277E1,-1.561738014E0,-5.381926298E-1,-6.602028012E-1
1.262397842E1,-1.830518723E0,-6.609765291E-1,-5.142060518E-1
1.263394107E1,-1.806084156E0,-7.544389367E-1,-2.008321285E-1
1.264388892E1,-1.521420956E0,-7.355020642E-1,1.687413454E-1
1.265416557E1,-1.097480536E0,-6.377636790E-1,4.998303354E-1
1.266392527E1,-6.301685572E-1,-4.868799746E-1,7.496741414E-1
1.267386411E1,-2.025629282E-1,-1.270803362E-1,8.907840252E-1
1.268386396E1,4.972442985E-2,2.467691898E-1,9.463727474E-1
1.269386727E1,-3.665219992E-4,3.976529241E-1,9.323228598E-1
1.270388215E1,-3.491705954E-1,4.275853038E-1,8.364170194E-1
1.271390200E1,-8.806233406E-1,3.848247528E-1,6.946963072E-1
1.272386534E1,-1.382143736E0,2.443257272E-1,6.012338996E-1
1.273386469E1,-1.609996438E0,-1.590285636E-2,6.653747559E-1
1.274386807E1,-1.446895361E0,-4.147978723E-1,8.284757733E-1
1.275386807E1,-9.569814801E-1,-7.135109305E-1,9.964637160E-1
1.276387861E1,-4.579046071E-1,-7.074022889E-1,1.074654579E0
1.277387919E1,-5.183802247E-1,-3.347745240E-1,8.535212278E-1
1.278388038E1,-1.040670037E0,1.891646162E-2,6.024556160E-1
1.279388730E1,-1.682689428E0,4.068158865E-1,2.896926701E-1
1.280388000E1,-2.313102245E0,6.065688729E-1,-2.490294166E-2
1.281388492E1,-2.786522865E0,6.267274022E-1,-1.928908825E-1
1.282389988E1,-3.002769232E0,3.481728137E-1,-1.122566760E-1
1.283388657E1,-2.923356771E0,-1.454062909E-1,1.186503842E-1
1.284393780E1,-2.558670044E0,-5.681250095E-1,3.116838038E-1
1.285396165E1,-2.038823843E0,-7.739865780E-1,3.410053551E-1
1.286390276E1,-1.491488576E0,-7.941451669E-1,2.267735451E-1
1.287390065E1,-1.005850673E0,-6.212702990E-1,5.023348331E-2
1.288388546E1,-7.083593011E-1,-4.172413349E-1,-9.881763905E-2
1.289393815E1,-6.521596909E-1,-3.695938289E-1,-1.617367566E-1
1.290388861E1,-7.444003820E-1,-4.099109471E-1,-1.183653250E-1
1.291388923E1,-8.574104309E-1,-4.239608347E-1,2.640974149E-2
1.292395823E1,-9.264382124E-1,-4.398433268E-1,1.992846131E-1
1.293389315E1,-9.856921434E-1,-4.490063190E-1,3.245119750E-1
1.294394680E1,-1.079154491E0,-4.874908328E-1,3.739920557E-1
1.295394692E1,-1.133521557E0,-6.151616573E-1,3.678834140E-1
1.296388342E1,-1.049832940E0,-6.640308499E-1,3.385618925E-1
1.297388884E1,-8.054869175E-1,-7.238956690E-1,3.019099832E-1
1.298393503E1,-4.310265183E-1,-8.362948298E-1,2.695341110E-1
1.299397992E1,-8.344419301E-2,-8.020864129E-1,2.603711188E-1
1.300390977E1,8.637634665E-2,-7.654345036E-1,2.664797902E-1
1.301388834E1,3.811798990E-2,-7.672671080E-1,2.951904535E-1
1.302393203E1,-1.646892726E-1,-7.428324819E-1,3.715485930E-1
1.303394819E1,-4.493524730E-1,-7.000719309E-1,4.674544632E-1
1.304388811E1,-7.407351732E-1,-6.542569995E-1,5.358713269E-1
1.305390965E1,-9.740856886E-1,-6.353201866E-1,5.670254827E-1
1.306389496E1,-1.112141252E0,-6.420397162E-1,5.639711022E-1
1.307394173E1,-1.164675713E0,-6.481483579E-1,5.169345140E-1
1.308388980E1,-1.165897369E0,-6.902980804E-1,4.320242703E-1
1.309393519E1,-9.924116731E-1,-7.874256372E-1,2.530407608E-1
1.310389657E1,-8.500800729E-1,-7.910908461E-1,1.485827863E-1
1.311388300E1,-7.382917404E-1,-7.098457217E-1,2.579887584E-2
1.312630757E1,-6.851464510E-1,-5.443012714E-1,-8.782206476E-2
1.314393538E1,-7.560067773E-1,-1.356324404E-1,-2.368731797E-1
1.315392900E1,-8.348084092E-1,1.280780882E-2,-2.527556717E-1
1.316388377E1,-9.013927579E-1,5.862270668E-2,-2.350405753E-1
1.317388961E1,-9.172752500E-1,3.052290156E-2,-2.051081806E-1
1.318392500E1,-8.537452221E-1,2.869030461E-2,-1.550172269E-1
1.319388496E1,-7.156897187E-1,-2.140064351E-2,-7.804822177E-2
1.320388634E1,-5.128824711E-1,-1.686191708E-1,1.113810856E-2
1.321388342E1,-2.471560836E-1,-2.761314511E-1,9.665923566E-2
1.322399280E1,2.345722355E-2,-2.877379060E-1,1.534697115E-1
1.323392792E1,2.122145742E-1,-3.121725023E-1,1.583566368E-1
1.324391169E1,3.068986833E-1,-3.201137483E-1,1.235373095E-1
1.325394077E1,3.459940553E-1,-2.132123411E-1,8.077674359E-2
1.326390384E1,3.197268546E-1,-9.287187457E-2,1.724676043E-2
1.327388938E1,2.158797681E-1,-2.140064351E-2,-9.087639302E-2
1.328388938E1,6.682866067E-2,4.029674456E-2,-2.325971276E-1
1.329387700E1,-9.749409556E-2,8.672250807E-2,-3.853134215E-1
1.330395034E1,-2.636494339E-1,1.239852756E-1,-5.496361852E-1
1.331388673E1,-3.980397880E-1,1.948456466E-1,-7.017416358E-1
1.332390850E1,-4.817283452E-1,3.048014045E-1,-7.909280062E-1
1.333389715E1,-5.055520535E-1,4.251418412E-1,-7.958149314E-1
1.334389800E1,-4.725653529E-1,5.344867706E-1,-7.328957915E-1
1.335389757E1,-4.127005637E-1,6.462751031E-1,-6.528724432E-1
1.336394953E1,-3.626096249E-1,7.379049063E-1,-6.046140790E-1
1.337388476E1,-3.534466326E-1,7.525656223E-1,-6.253834963E-1
1.338393146E1,-4.243070185E-1,7.776111364E-1,-6.748635769E-1
1.339395226E1,-6.112317443E-1,7.372940183E-1,-6.620354056E-1
1.340393715E1,-8.806233406E-1,5.595322251E-1,-5.978945494E-1
1.341393353E1,-1.185445070E0,7.572692633E-2,-5.416949391E-1
1.342395007E1,-1.642983198E0,-2.199318558E-1,-6.101118922E-1
1.343393453E1,-1.782871246E0,-4.319020808E-1,-7.066285610E-1
1.344390823E1,-1.864116311E0,-5.895053148E-1,-7.286197543E-1
1.345387715E1,-1.800586343E0,-7.501628399E-1,-6.095010042E-1
1.346394603E1,-1.605109453E0,-7.452759147E-1,-3.248377740E-1
1.347391942E1,-1.339383125E0,-5.009298325E-1,1.504153907E-1
1.348392496E1,-1.018678904E0,-1.399085075E-1,6.946963072E-1
1.349390000E1,-6.491053700E-1,4.029674456E-2,1.146736622E0
1.350393807E1,-2.972470224E-1,7.084000111E-2,1.402078271E0
1.351392876E1,-1.685988158E-2,7.267260551E-2,1.507147074E0
1.352388373E1,2.959031165E-1,-1.160847545E-1,1.599387765E0
1.353394700E1,6.318790317E-1,-1.545692682E-1,1.681854606E0
1.354392365E1,8.927184939E-1,3.353446424E-1,1.724004269E0
1.355388276E1,1.022832751E0,1.153904080E0,1.661085129E0
1.356394461E1,9.666332006E-1,1.696352363E0,1.333661437E0
1.357396215E1,8.633969426E-1,1.495988607E0,7.331808209E-1
1.358394773E1,8.951619267E-1,1.064717770E0,1.485827863E-1
1.359393526E1,1.126069069E0,9.755315185E-1,-1.843387634E-1
1.360394038E1,1.406456113E0,1.112365246E0,-3.303355575E-1
1.361388392E1,1.458990574E0,1.212547064E0,-4.463999569E-1
1.362388476E1,1.228694320E0,1.100758791E0,-5.600209236E-1
1.363388407E1,1.083308458E0,8.674083352E-1,-5.850663781E-1
1.364388015E1,1.163942695E0,8.625214100E-1,-5.771251321E-1
1.365388026E1,1.253129005E0,8.380867839E-1,-6.186639667E-1
1.366390215E1,1.266568065E0,7.360723019E-1,-6.095010042E-1
1.367391830E1,1.211590171E0,7.183572054E-1,-5.258124471E-1
1.368389919E1,1.183490396E0,5.094412565E-1,-4.836627245E-1
1.369390342E1,1.214644432E0,3.243490756E-1,-4.744997621E-1
1.370400769E1,1.179214239E0,2.198911309E-1,-4.848844707E-1
1.371393219E1,1.042380452E0,1.313156635E-1,-5.154277682E-1
1.372392023E1,9.342573285E-1,3.567249477E-1,-6.168313622E-1
1.373395065E1,1.008172035E0,7.898284197E-1,-9.656354189E-1
1.374390300E1,1.407067060E0,1.297457337E0,-9.680789113E-1
1.375390546E1,1.572611451E0,9.144449234E-1,-9.583050609E-1
1.376395219E1,1.800464272E0,3.781052232E-1,-1.081088901E0
1.377388246E1,2.105896950E0,5.923357233E-2,-1.275344014E0
1.378394846E1,2.372234106E0,-1.612887830E-1,-1.391408443E0
1.379389873E1,2.451035738E0,-4.807713032E-1,-1.271678925E0
1.380394450E1,2.360627651E0,-5.809531808E-1,-8.648426533E-1
1.381396838E1,2.352686405E0,-3.402723074E-1,-4.274631441E-1
1.382389788E1,2.551828384E0,5.068145320E-2,-1.855604947E-1
1.383388376E1,2.782124758E0,5.412063003E-1,-1.098132133E-1
1.384389888E1,2.907963037E0,8.264803290E-1,-9.576331079E-2
1.385389276E1,2.993484020E0,6.377229691E-1,-1.550172269E-1
1.386388030E1,3.130928755E0,2.589865029E-1,-2.924619019E-1
1.387388588E1,3.316631794E0,7.267260551E-2,-3.785939217E-1
1.388390473E1,3.550593138E0,1.708386838E-2,-4.030285180E-1
1.389392119E1,3.854804039E0,7.920887321E-3,-4.586172700E-1
1.390393657E1,4.134580135E0,1.991217136E-1,-5.502470732E-1
1.391393523E1,4.169399738E0,1.264287382E-1,-6.559267640E-1
1.392390780E1,3.740572214E0,-4.551149607E-1,-7.768780589E-1
1.393394396E1,3.182852268E0,-8.424035311E-1,-9.118793011E-1
1.394388250E1,2.733255386E0,-9.664091468E-1,-1.034663200E0
1.395393673E1,2.337414742E0,-9.541918635E-1,-1.125071168E0
1.396413957E1,2.000828028E0,-6.927415133E-1,-1.137288570E0
1.397388246E1,1.727771282E0,-7.275608182E-1,-1.150727510E0
1.398393311E1,1.623313308E0,-1.103242993E0,-1.252131224E0
1.399394219E1,1.859718204E0,-1.146614432E0,-1.394462824E0
1.400393030E1,2.502348423E0,-8.118602633E-1,-1.515414119E0
1.401394619E1,3.212784767E0,-8.493062854E-2,-1.618039489E0
1.402394000E1,3.653829336E0,4.391917586E-1,-1.613763452E0
1.403388788E1,3.720413685E0,5.295998454E-1,-1.454327583E0
1.404394138E1,3.388713837E0,6.963660717E-1,-1.153781891E0
1.405393042E1,2.679499388E0,1.155736685E0,-7.585521340E-1
1.406394626E1,6.935763955E-1,1.694519758E0,1.259807795E-1
1.407393819E1,-1.781283170E-1,1.227818727E0,3.953723609E-1
1.408388515E1,-7.731110454E-1,1.471981555E-1,5.193779469E-1
1.409393069E1,-1.092593551E0,-1.104464769E0,4.912782013E-1
1.410389165E1,-1.085263133E0,-1.733655930E0,2.530407608E-1
1.411389653E1,-6.827029586E-1,-1.485644698E0,-1.324152201E-1
1.412388442E1,1.480737329E-1,-4.752735198E-1,-6.076683998E-1
1.413394896E1,1.163331747E0,3.329012096E-1,-1.024889350E0
1.414390026E1,2.039312601E0,6.798726916E-1,-1.175773025E0
1.415388107E1,2.699657917E0,9.981334805E-1,-1.089640975E0
1.416395253E1,3.188350201E0,1.288905263E0,-8.990511298E-1
1.417390646E1,3.531656265E0,1.402526259E0,-7.170132995E-1
1.418393980E1,3.764395952E0,1.055554748E0,-7.762672305E-1
1.419388319E1,3.877406120E0,3.823812902E-1,-1.049934745E0
1.420393846E1,3.771726370E0,-1.179173589E-1,-1.268013716E0
1.421386396E1,3.278147221E0,-4.648888111E-1,-1.207538009E0
1.422387123E1,2.422325134E0,-1.034826040E0,-8.623992205E-1
1.423390573E1,1.379578114E0,-1.707999587E0,-5.019887090E-1
1.424386503E1,5.304753780E-1,-2.172868013E0,-2.802446187E-1
1.425390661E1,1.700648814E-1,-2.572373867E0,-2.637512386E-1
1.426390380E1,2.623055279E-1,-2.808167696E0,-5.667404532E-1
1.427389892E1,6.844134331E-1,-2.538776159E0,-1.018780708E0
1.428389711E1,1.300165653E0,-1.954789162E0,-1.376136780E0
1.429386553E1,1.980669498E0,-1.593767762E0,-1.535572648E0
1.430390053E1,2.509678841E0,-1.328652263E0,-1.495255589E0
1.431389969E1,2.672168970E0,-1.086749673E0,-1.295502663E0
1.432390419E1,2.448592186E0,-1.298719883E0,-1.034663200E0
1.433386688E1,2.022819281E0,-2.077573061E0,-7.707694173E-1
1.434391038E1,1.356976032E0,-2.833213329E0,-6.565376520E-1
1.435389884E1,7.864279151E-1,-3.183238983E0,-6.485964060E-1
1.436393273E1,7.002959251E-1,-3.438580751E0,-5.245907307E-1
1.437388549E1,8.982163072E-1,-3.826480150E0,-4.787758291E-1
1.438388096E1,1.093693137E0,-3.985305071E0,-7.872627974E-1
1.439390176E1,1.322156787E0,-3.860077858E0,-8.477384448E-1
1.440393653E1,1.426614761E0,-3.576025486E0,-8.691187501E-1
1.441389857E1,1.603154778E0,-3.398874521E0,-8.556796908E-1
1.442388815E1,1.830396652E0,-3.308466434E0,-7.304522991E-1
1.443388626E1,1.775418758E0,-2.773348570E0,-5.215364099E-1
1.444388784E1,1.287948251E0,-2.188139677E0,-2.985705733E-1
1.445392738E1,7.454999685E-1,-1.920580745E0,-1.434108019E-1
1.446423453E1,4.223522246E-1,-1.678067207E0,-1.293608993E-1
1.447389434E1,3.459940553E-1,-1.423336387E0,-1.867822260E-1
1.448394453E1,4.541172087E-1,-1.103853941E0,-1.855604947E-1
1.449389057E1,6.557027698E-1,-8.998248577E-1,-9.576331079E-2
1.450410422E1,8.560665846E-1,-7.306151390E-1,-8.409580216E-3
1.451394384E1,9.312030077E-1,-4.881016910E-1,-2.911793068E-3
1.452389392E1,7.797084451E-1,-4.410650730E-1,-4.744388629E-3
1.453388465E1,4.809952676E-1,-6.359310746E-1,5.512040481E-2
1.454390449E1,2.604729235E-1,-7.794843912E-1,1.510262489E-1
1.455402669E1,2.042733282E-1,-7.153435349E-1,2.597602606E-1
1.456391196E1,2.800206244E-1,-5.595728755E-1,3.495574594E-1
1.457389892E1,4.400673211E-1,-5.265861750E-1,3.348966837E-1
1.458395053E1,6.141639352E-1,-6.860219836E-1,1.711848080E-1
1.459394988E1,7.662693858E-1,-7.629910111E-1,-2.184861526E-2
1.460388626E1,8.371297717E-1,-7.220630646E-1,-8.598946780E-2
1.461391638E1,7.540521026E-1,-5.039841533E-1,-5.788966268E-2
1.462393446E1,4.913800061E-1,-5.072217435E-2,-3.406592086E-2
1.463388522E1,1.584584415E-1,2.950275540E-1,-4.383976385E-2
1.464389511E1,-1.451415867E-1,2.779233158E-1,-9.270898998E-2
1.465395646E1,-3.846007586E-1,1.368134469E-1,-1.568498313E-1
1.466389849E1,-5.391496420E-1,8.977682889E-2,-1.770083904E-1
1.467389857E1,-6.216164231E-1,1.087136567E-1,-1.348586828E-1
1.468393884E1,-5.990144610E-1,4.457280412E-2,-9.209812433E-2
1.469390599E1,-3.919311464E-1,-1.392976344E-1,-7.255043089E-2
1.470388838E1,3.567452729E-2,-3.243898153E-1,-3.101159260E-2
1.471394653E1,9.483072162E-1,-5.669032931E-1,1.400306821E-1
1.472391353E1,1.157834053E0,-6.756373048E-1,1.461393386E-1
1.473394326E1,1.121182084E0,-6.683068871E-1,6.122906134E-2
1.474389992E1,8.438493013E-1,-5.406360626E-1,-4.872668535E-2
1.475388065E1,4.473977089E-1,-3.683721125E-1,-7.377216220E-2
1.476387896E1,1.382998824E-1,-2.455881983E-1,1.358156931E-2
1.477388972E1,3.933972120E-2,-1.832799315E-1,1.272025108E-1
1.478419373E1,1.346346885E-1,-2.040493488E-1,1.693522036E-1
1.479390399E1,3.844785690E-1,-3.280549943E-1,1.107091382E-1
1.480388384E1,7.180110216E-1,-5.632380843E-1,-2.300927415E-3
1.481391969E1,1.019778490E0,-6.841893792E-1,-1.073697507E-1
1.482389223E1,1.147449255E0,-4.593910277E-1,-1.629584879E-1
1.483392380E1,1.025276303E0,1.288722008E-1,-1.464651227E-1
1.484388046E1,7.094589472E-1,7.562308311E-1,-8.354600519E-2
1.485389215E1,2.904053330E-1,1.239425182E0,-8.354600519E-2
1.486406842E1,-1.689653397E-1,1.633433223E0,3.129666299E-2
1.487387634E1,-6.081774235E-1,1.819136262E0,5.756386742E-2
1.488386515E1,-9.514836669E-1,1.814860225E0,8.627452701E-2
1.489390769E1,-1.136575818E0,1.674361229E0,6.611597538E-2
1.490390188E1,-1.102978230E0,1.444675922E0,1.663589478E-2
1.491390007E1,-8.219802380E-1,1.120306492E0,1.663589478E-2
1.492390607E1,-3.589444160E-1,7.360723019E-1,-4.017457366E-2
1.493390692E1,1.370781511E-1,3.836030066E-1,-9.698504210E-2
1.494386830E1,5.323079824E-1,2.901406288E-1,-9.270898998E-2
1.495390146E1,7.192327380E-1,4.550742507E-1,-9.020444937E-3
1.496390138E1,6.666983366E-1,7.183572054E-1,3.679445013E-2
1.497387446E1,4.095240533E-1,9.920248389E-1,-4.683323205E-4
1.498386623E1,1.368338056E-2,1.165510535E0,-9.087639302E-2
1.499386815E1,-3.888768256E-1,1.143519402E0,-2.142711580E-1
1.500386926E1,-6.307794452E-1,1.011572480E0,-3.511049747E-1
1.501390019E1,-6.546031833E-1,1.114808679E0,-4.262413979E-1
1.502386753E1,-6.265033484E-1,1.530807853E0,-3.584353626E-1
1.503389892E1,-6.985854506E-1,2.024387121E0,3.496185318E-2
1.504390003E1,-1.204381943E0,2.681678057E0,1.327002943E-1
1.505395515E1,-1.429180264E0,2.444662333E0,1.033787578E-1
1.506393630E1,-1.392528415E0,1.930313826E0,-2.978986502E-2
1.507388376E1,-1.052276492E0,1.495988607E0,-1.391347349E-1
1.508393684E1,-5.586973429E-1,1.150238872E0,-1.116458103E-1
1.509390330E1,-1.280373633E-1,9.138340950E-1,7.472916506E-3
1.510387972E1,7.904595882E-2,1.167343140E0,1.284242421E-1
1.511388630E1,-4.129449278E-2,2.018889427E0,2.756427526E-1
1.512389092E1,-5.898514390E-1,3.137994528E0,4.320242703E-1
1.513394549E1,-1.523864388E0,4.153863430E0,5.395365357E-1
1.514394799E1,-2.448714495E0,5.104369640E0,5.804644823E-1
1.515388842E1,-3.154263735E0,6.081143379E0,6.097860336E-1
1.516388330E1,-3.441981316E0,6.757981777E0,6.250576377E-1
1.517398903E1,-3.295984507E0,6.841059685E0,6.073425412E-1
1.518391565E1,-2.952067375E0,6.683456421E0,6.470488310E-1
1.519394084E1,-2.672291040E0,6.501418591E0,6.824789643E-1
1.520389019E1,-2.580661297E0,5.930259705E0,5.157127976E-1
1.521390461E1,-2.691838741E0,4.882014751E0,1.650761515E-1
1.522398746E1,-2.919080734E0,3.498404980E0,-1.489085853E-1
1.523388684E1,-3.069964409E0,1.937033296E0,-2.130494267E-1
1.524389157E1,-2.956343412E0,5.595322251E-1,-1.268563699E-2
1.525394203E1,-2.568444014E0,-1.162680052E-2,3.342858255E-1
1.526394230E1,-2.128621101E0,3.420641720E-1,6.965289116E-1
1.527395865E1,-1.920926809E0,1.047002673E0,9.427075982E-1
1.528393411E1,-2.093801737E0,1.516147137E0,9.445402026E-1
1.529394292E1,-2.572109222E0,1.667030811E0,7.380677462E-1
1.530392542E1,-3.068131685E0,1.666419983E0,4.863912761E-1
1.531391007E1,-3.272771597E0,1.473386526E0,3.397836089E-1
1.532391619E1,-3.100507498E0,1.042726636E0,3.410053551E-1
1.533388653E1,-2.645412922E0,5.906863809E-1,4.668435752E-1
1.534393507E1,-2.092580080E0,3.817704022E-1,6.433836222E-1
1.535394869E1,-1.626489758E0,4.263635874E-1,8.669602871E-1
1.536394396E1,-1.574566245E0,8.356433511E-1,7.252395749E-1
1.537388488E1,-2.002171993E0,1.300511718E0,4.417981207E-1
1.538388246E1,-2.529348612E0,1.864951253E0,2.328822017E-1
1.539390803E1,-3.057747126E0,2.329819679E0,2.481538355E-1
1.540394115E1,-3.504289627E0,2.539346457E0,4.863912761E-1
1.541393630E1,-3.772459269E0,2.427558184E0,8.388605118E-1
1.542394576E1,-3.759020329E0,2.214366198E0,1.155899644E0
1.543395249E1,-3.437705278E0,2.192986012E0,1.338548303E0
1.544394546E1,-3.040642738E0,2.376245499E0,1.292733431E0
1.545389099E1,-2.806070566E0,2.258348465E0,1.074654579E0
1.546389296E1,-2.774305582E0,1.596170545E0,7.814391851E-1
1.547394453E1,-2.783468485E0,7.776111364E-1,3.483357131E-1
1.548389965E1,-2.683897495E0,-1.417410970E-1,-9.820677340E-2
1.549388799E1,-2.506746531E0,-9.267029166E-1,-2.747468352E-1
1.550393153E1,-2.226970434E0,-1.171049118E0,-2.967379689E-1
1.551388388E1,-1.867170691E0,-1.209533572E0,-2.075516433E-1
1.552405999E1,-1.818301439E0,-1.565667987E0,-9.820677340E-2
1.553389165E1,-2.374799728E0,-2.130107403E0,-1.147001386E-1
1.554391157E1,-2.972836733E0,-2.252280474E0,-2.356514484E-1
1.555394080E1,-3.037588596E0,-2.012821198E0,-2.002212554E-1
1.556395826E1,-2.660684586E0,-2.026260376E0,1.210938469E-1
1.557393769E1,-2.217807293E0,-2.214406729E0,5.242648721E-1
1.558394342E1,-2.088914871E0,-2.114835739E0,7.942673564E-1
1.559389322E1,-2.422447205E0,-1.924245954E0,7.789956927E-1
1.560394261E1,-2.979556322E0,-1.497251153E0,3.410053551E-1
1.561388280E1,-3.404107571E0,-1.053762913E0,-2.674164474E-1
1.562389622E1,-3.572706461E0,-9.731286764E-1,-6.345464587E-1
1.563389130E1,-3.419379234E0,-1.259624481E0,-7.945931554E-1
1.564388680E1,-2.913582802E0,-1.630419731E0,-7.047959566E-1
1.565388603E1,-2.140227556E0,-2.149655104E0,-4.653367698E-1
1.566388499E1,-1.201938391E0,-2.535722017E0,-2.716924846E-1
1.567397299E1,-3.931528926E-1,-2.508233070E0,-1.159218624E-1
1.568393869E1,8.087855577E-2,-1.912028670E0,9.238318354E-2
1.569393711E1,-1.744631231E-1,-1.667682528E0,1.265916377E-1
1.570393838E1,-6.882007718E-1,-1.318878412E0,9.305511601E-3
1.571392746E1,-1.319224596E0,-1.222972631E0,-2.081625164E-1
1.572390088E1,-1.741943359E0,-1.431277633E0,-4.439564943E-1
1.573394665E1,-1.745608449E0,-1.506414056E0,-6.925786734E-1
1.574394561E1,-1.418184757E0,-1.417838573E0,-9.405899644E-1
1.575389780E1,-1.000352979E0,-1.276117921E0,-1.167220950E0
1.576388522E1,-5.947383642E-1,-1.158220887E0,-1.301000357E0
1.577394196E1,-1.433089972E-1,-1.029328346E0,-1.216701031E0
1.578393446E1,2.720793784E-1,-7.434433103E-1,-9.442551732E-1
1.579525346E1,5.506339669E-1,-3.042312562E-1,-6.107227206E-1
1.580389069E1,6.263812184E-1,1.325373948E-1,-3.034574986E-1
1.581390876E1,4.455651045E-1,4.868392646E-1,-8.354600519E-2
1.582391169E1,2.895501070E-2,7.568417192E-1,3.007493168E-2
1.583394099E1,-5.171585083E-1,1.026233196E0,2.457714453E-2
1.584394976E1,-9.997420311E-1,1.128858566E0,-1.354695410E-1
1.585393330E1,-1.213544846E0,1.019513726E0,-3.657657504E-1
1.586388496E1,-1.152458310E0,7.434026599E-1,-5.447493196E-1
1.587388892E1,-9.276599288E-1,3.054122627E-1,-6.718092561E-1
1.588395092E1,-6.570466161E-1,-1.124195606E-1,-7.506108880E-1
1.589395869E1,-4.395786524E-1,-3.842546046E-1,-7.548869252E-1
1.590388203E1,-3.241251111E-1,-6.402071118E-1,-7.506108880E-1
1.591388384E1,-3.943746090E-1,-8.271318674E-1,-7.616064548E-1
1.592388884E1,-6.448293328E-1,-7.745974660E-1,-7.371718287E-1
1.593394515E1,-8.855102658E-1,-5.015407205E-1,-5.856772661E-1
1.594442569E1,-1.057774186E0,-2.443664670E-1,-2.368731797E-1
1.595389072E1,-1.239201188E0,-1.826690733E-1,2.017280757E-1
1.596388511E1,-1.399247885E0,-4.068566263E-1,6.140620708E-1
1.597389080E1,-1.377867579E0,-5.858401060E-1,9.445402026E-1
1.598393592E1,-1.146349669E0,-6.200485826E-1,1.221873045E0
1.599388934E1,-8.818450570E-1,-7.061805725E-1,1.465608239E0
1.600389015E1,-6.863681674E-1,-7.917016745E-1,1.480879903E0
1.601393753E1,-2.538755834E-1,-4.013588428E-1,1.158343077E0
1.602394888E1,-3.885103017E-2,-3.728314117E-2,5.700798035E-1
1.603391638E1,1.413542032E-1,1.148222983E-1,-1.006502360E-1
1.604391092E1,3.252246380E-1,3.255708218E-1,-5.465818644E-1
1.605388096E1,4.394564629E-1,4.850066602E-1,-6.473746300E-1
1.606388376E1,4.528954923E-1,4.526307881E-1,-5.801794529E-1
1.607388211E1,4.565606713E-1,3.487837017E-1,-5.471927524E-1
1.608389242E1,4.828278720E-1,2.589865029E-1,-5.759034157E-1
1.609389488E1,4.724431634E-1,8.672250807E-2,-6.376007795E-1
1.610387465E1,3.789807856E-1,-8.859582245E-2,-7.133480906E-1
1.611387476E1,2.311514020E-1,-1.649539769E-1,-7.567195296E-1
1.612388334E1,6.927211583E-2,-2.944574058E-1,-7.585521340E-1
1.613393149E1,-5.839871988E-2,-4.141870141E-1,-7.206785083E-1
1.614416684E1,-1.237612963E-1,-3.476026952E-1,-6.467638016E-1
1.615388157E1,-1.200961098E-1,-3.347745240E-1,-5.227581263E-1
1.616393111E1,-8.222246170E-2,-3.787568212E-1,-4.274631441E-1
1.617390561E1,-1.042136103E-1,-2.376469374E-1,-3.798156381E-1
1.618393488E1,-1.695761979E-1,-1.423519552E-1,-3.285029531E-1
1.619387884E1,-2.502104044E-1,-1.441845596E-1,-2.710816264E-1
1.620394069E1,-4.120897055E-1,-1.741169542E-1,-2.240450084E-1
1.621392530E1,-6.875898838E-1,-1.411302388E-1,-9.270898998E-2
1.622395499E1,-1.035172224E0,-7.332418859E-2,1.394198090E-1
1.623394265E1,-1.426126003E0,-9.592620283E-2,2.224974930E-1
1.624388361E1,-1.809749365E0,-2.975117266E-1,1.168177947E-1
1.625392776E1,-2.082195282E0,-6.145507693E-1,4.168137163E-2
1.626389292E1,-2.137173176E0,-8.961596489E-1,8.083782159E-3
1.627388918E1,-1.881831408E0,-9.071552157E-1,-1.397456080E-1
1.628394726E1,-1.210490584E0,-6.206594110E-1,-3.798156381E-1
1.629390980E1,-1.646892726E-1,-2.174883932E-1,-6.186639667E-1
1.630388776E1,1.014891505E0,3.426750302E-1,-7.933714390E-1
1.631391580E1,2.069855928E0,8.142630458E-1,-8.562905788E-1
1.632388484E1,2.632462740E0,9.535403252E-1,-8.581231833E-1
1.633388965E1,2.031982183E0,1.054943919E0,-6.809722185E-1
1.634394730E1,1.289170027E0,8.478606343E-1,-6.198857427E-1
1.635389484E1,5.194798112E-1,4.758436382E-1,-6.547050476E-1
1.636388884E1,-1.543045640E-1,1.276504695E-1,-6.956329942E-1
1.637390946E1,-5.281540751E-1,-9.348274767E-2,-6.815831065E-1
1.638394134E1,-4.163657725E-1,-6.049601734E-2,-6.669223309E-1
1.639390722E1,2.895501070E-2,8.611163497E-2,-7.225110531E-1
1.640388811E1,4.113566577E-1,1.826283485E-1,-9.295943975E-1
1.641387988E1,7.894822359E-1,7.511606812E-2,-1.032830596E0
1.642394230E1,1.155390501E0,-1.166956276E-1,-9.735766649E-1
1.643389299E1,1.304441690E0,-1.643431187E-1,-9.265400767E-1
1.644392776E1,1.237857342E0,-3.422881290E-2,-9.741875529E-1
1.645388542E1,1.184712052E0,-2.017891407E-2,-1.032830596E0
1.646394057E1,1.234803081E0,-1.331889778E-1,-1.051156521E0
1.647389038E1,1.213422775E0,1.588045955E-1,-9.167662263E-1
1.648388876E1,1.148671031E0,5.302106738E-1,-7.005199194E-1
1.649387761E1,1.066815138E0,6.548272371E-1,-4.854953289E-1
1.650389165E1,9.415876865E-1,6.310034394E-1,-3.230051696E-1
1.651402696E1,8.456818461E-1,6.310034394E-1,-3.022357523E-1
1.652388345E1,7.833735943E-1,7.892175913E-1,-4.744997621E-1
1.653391384E1,6.941872835E-1,1.177727818E0,-6.766961813E-1
1.654389088E1,6.550918818E-1,1.558907747E0,-7.664933801E-1
1.655389399E1,6.825808287E-1,1.695741534E0,-7.445022464E-1
1.656388488E1,6.911329627E-1,1.565016389E0,-5.569666028E-1
1.657388895E1,7.094589472E-1,1.321892023E0,-1.898365468E-1
1.658390307E1,8.438493013E-1,1.265692353E0,1.608000994E-1
1.659391276E1,9.727418423E-1,1.337163687E0,4.918890893E-1
1.660394907E1,9.574701786E-1,1.530807853E0,7.111896276E-1
1.661388180E1,7.858170867E-1,1.748275995E0,6.305554509E-1
1.662390576E1,5.512447953E-1,1.827688456E0,2.243300825E-1
1.663394895E1,3.600439727E-1,1.702461004E0,-3.553810418E-1
1.664389426E1,2.549751401E-1,1.252253413E0,-9.906809330E-1
1.665390676E1,2.018298656E-1,-5.809531808E-1,-1.454938412E0
1.666393245E1,1.236391291E-1,-1.383019328E0,-1.243579030E0
1.667389642E1,3.078760765E-2,-1.491142511E0,-1.003509045E0
1.668388188E1,-2.673146427E-1,-5.497990251E-1,-7.512217164E-1
1.669390622E1,-8.848993778E-1,2.449365854E-1,-2.216015458E-1
1.670393961E1,-1.481714725E0,8.374758959E-1,3.697160184E-1
1.671388945E1,-1.955135226E0,1.451395392E0,6.232250333E-1
1.672393722E1,-2.236744165E0,1.968798280E0,6.317771673E-1
1.673388349E1,-2.244074583E0,2.249185562E0,5.584733486E-1
1.674388103E1,-1.562348962E0,2.693284512E0,1.381980777E-1
1.675392661E1,-2.105041742E-1,2.560116053E0,-4.995452464E-1
1.676387942E1,1.061928153E0,1.963300467E0,-9.497529268E-1
1.677387811E1,1.934243679E0,1.299900889E0,-1.244800806E0
1.678392738E1,2.207911253E0,9.694227576E-1,-1.472653508E0
1.679393076E1,1.976393461E0,9.150558114E-1,-1.424395204E0
1.680388988E1,1.462044954E0,9.431555867E-1,-1.073147655E0
1.681389426E1,9.562484622E-1,9.205535650E-1,-6.070575714E-1
1.682393065E1,6.630331874E-1,1.007907271E0,-2.490904778E-1
1.683388557E1,6.764721870E-1,1.133745551E0,-2.978986502E-2
1.684393811E1,9.867917299E-1,1.192388535E0,1.100982726E-1
1.685387772E1,1.347813129E0,9.736989141E-1,2.298278660E-1
1.686388768E1,1.484036088E0,6.157318354E-1,2.823622823E-1
1.687387761E1,1.311772108E0,3.457293510E-1,1.297070365E-2
1.688395045E1,8.175820708E-1,2.510452569E-1,-3.547701836E-1
1.689396218E1,1.230282560E-1,2.376062274E-1,-4.091371894E-1
1.690389545E1,-4.188092053E-1,1.649132520E-1,-1.849496365E-1
1.691388619E1,-5.159367919E-1,1.716327667E-1,3.801617771E-2
1.692396284E1,-1.811826378E-1,2.516561151E-1,1.687413454E-1
1.693388880E1,4.107457697E-1,1.862935424E-1,2.609820068E-1
1.694394534E1,1.000841618E0,9.466375411E-2,2.945795953E-1
1.695393465E1,1.236024737E0,1.812234521E-3,3.935397565E-1
1.696391149E1,1.102245212E0,-9.226101637E-2,4.680653214E-1
1.697398288E1,7.772649527E-1,-8.309803158E-2,1.797369272E-1
1.698388418E1,8.393288404E-2,-7.149159908E-2,1.168177947E-1
1.699388053E1,-1.188743785E-1,5.905069411E-4,1.650761515E-1
1.700388934E1,-2.276083976E-1,1.569720060E-1,2.658689320E-1
1.701388872E1,-1.976760030E-1,2.418822646E-1,3.715485930E-1
1.702393734E1,1.918116771E-2,1.111571044E-1,4.381329119E-1
1.703395699E1,2.787988782E-1,-9.287187457E-2,4.308025241E-1
1.704388534E1,4.437325001E-1,-2.278731018E-1,4.075896442E-1
1.705393022E1,4.858821929E-1,-2.602489591E-1,3.776572645E-1
1.706391515E1,4.339586496E-1,-1.979407072E-1,2.701449692E-1
1.707392649E1,2.885727286E-1,-6.538294256E-2,1.449176073E-1
1.708392499E1,1.743409336E-1,-6.904813647E-2,2.885320038E-2
1.709394688E1,1.859473735E-1,-1.362433136E-1,-9.209812433E-2
1.710387753E1,2.372600436E-1,-1.521258056E-1,-1.623476148E-1
1.711388015E1,2.812423408E-1,-1.857233942E-1,-2.222124040E-1
1.712392368E1,3.148399293E-1,-2.254296392E-1,-3.474397957E-1
1.713391461E1,2.836858034E-1,-2.425338626E-1,-4.488434196E-1
1.714394607E1,1.859473735E-1,-2.480316460E-1,-4.274631441E-1
1.715388372E1,9.676105529E-2,-1.875559986E-1,-3.718743920E-1
1.716388415E1,5.522222072E-2,-1.313563883E-1,-3.175073862E-1
1.717393515E1,9.187413007E-2,-1.649539769E-1,-1.959452033E-1
1.718405865E1,1.859473735E-1,-2.150449306E-1,-1.128675416E-1
1.719389503E1,2.549751401E-1,-1.686191708E-1,-1.238631159E-1
1.720388449E1,3.111747503E-1,-1.686191708E-1,-1.073697507E-1
1.721388403E1,4.486194253E-1,-1.345939562E-2,-8.049168438E-2
1.722389522E1,5.640729666E-1,-6.477207690E-2,-1.586824208E-1
1.723390780E1,4.944343269E-1,-1.252477318E-1,-2.332079858E-1
1.724392542E1,2.922379375E-1,-2.248187810E-1,-2.130494267E-1
1.725389195E1,1.077566221E-1,-3.231680691E-1,-1.122566760E-1
1.726388249E1,-4.434882104E-2,-3.604308665E-1,1.033787578E-1
1.727388718E1,-1.176526472E-1,-3.317202032E-1,3.465031385E-1
1.728393911E1,-1.439198554E-1,-1.551801264E-1,4.943325222E-1
1.729389072E1,-1.420872658E-1,-1.895718277E-2,5.590842366E-1
1.730389907E1,1.047023013E-1,-6.293947995E-2,2.493755519E-1
1.731394365E1,1.328020990E-1,-1.099760979E-1,2.091195062E-2
1.732388153E1,1.266934425E-1,-1.539583951E-1,-1.458542496E-1
1.733388988E1,1.279151738E-1,-2.077145427E-1,-2.692490220E-1
1.734393749E1,7.293730974E-2,-2.516968250E-1,-2.973488271E-1
1.735389922E1,7.293730974E-2,-2.235970497E-1,-1.757866591E-1
1.736386876E1,-1.380555704E-2,-1.472388804E-1,7.533989847E-4
1.737390311E1,1.083674952E-1,-1.289129257E-1,1.864564419E-1
1.738386692E1,9.431759268E-2,-1.020348519E-1,3.678834140E-1
1.739390722E1,-6.633996964E-2,2.013819292E-2,4.332459867E-1
1.740386834E1,-1.372003406E-1,6.534221768E-2,3.843767643E-1
1.741386968E1,-3.152064979E-2,2.502511442E-2,3.025208414E-1
1.742386484E1,8.698721230E-2,-4.278092831E-2,1.968411505E-1
1.743391388E1,9.492845833E-2,-7.088072598E-2,4.717915878E-2
1.744386922E1,4.520399496E-3,-6.416121125E-2,-4.383976385E-2
1.745386472E1,-8.222246170E-2,-4.522438720E-2,-1.635082811E-2
1.746387322E1,-1.200961098E-1,2.563598007E-2,4.107050598E-2
1.747386384E1,-5.656612664E-2,4.457280412E-2,1.149851978E-1
1.748386676E1,-1.014036499E-2,7.389433682E-2,2.365473807E-1
1.749390784E1,-4.068362713E-2,1.545285434E-1,3.709377348E-1
1.750394238E1,-6.511823833E-2,2.156150639E-1,4.839478135E-1
1.751399568E1,-1.075123064E-2,1.643023938E-1,5.468668938E-1
1.752391995E1,8.576548100E-2,8.488990366E-2,5.028846264E-1
1.753388103E1,1.169196144E-1,4.579453543E-2,3.727703393E-1
1.754389957E1,7.415904105E-2,2.746857330E-2,2.493755519E-1
1.755394603E1,-7.696904242E-3,1.142114401E-1,1.919542253E-1
1.756391442E1,-9.505063295E-2,3.078557253E-1,2.365473807E-1
1.757389042E1,-1.213178411E-1,4.923370183E-1,4.271373451E-1
1.758394022E1,-7.733554393E-2,6.389446855E-1,7.331808209E-1
1.759389695E1,1.612683944E-2,7.446243763E-1,9.830247164E-1
1.760389168E1,1.554041058E-1,7.794437408E-1,1.080763221E0
1.761389676E1,2.842966914E-1,7.049181461E-1,1.069156766E0
1.762394315E1,3.612656891E-1,4.569068253E-1,8.730689287E-1
1.763393757E1,4.614475965E-1,4.294179082E-1,8.095389605E-1
1.764394318E1,5.084842443E-1,4.740110934E-1,8.846753836E-1
1.765393418E1,5.995031595E-1,5.479257703E-1,1.058161139E0
1.766389634E1,7.320609093E-1,5.686951876E-1,1.213320971E0
1.767388665E1,8.273559213E-1,5.002782941E-1,1.247529387E0
1.768394007E1,8.243016005E-1,5.112738609E-1,1.085039258E0
1.769397553E1,7.632150650E-1,5.399845243E-1,8.211454153E-1
1.770389718E1,6.465398073E-1,5.088304281E-1,5.719123483E-1
1.771391253E1,4.626693428E-1,5.558670163E-1,4.356894493E-1
1.772393888E1,2.702467740E-1,5.106630325E-1,5.383147597E-1
1.773392722E1,1.456302702E-1,3.610009849E-1,8.107606769E-1
1.774394018E1,4.605923593E-2,3.817704022E-1,1.059382915E0
1.775394211E1,-1.182635128E-1,4.990565479E-1,1.275018334E0
1.776394257E1,-1.940108091E-1,4.343048334E-1,1.417349935E0
1.777389711E1,-1.347568780E-1,2.803667784E-1,1.359317780E0
1.778391588E1,-4.923573881E-2,1.850718111E-1,1.118026018E0
1.779394526E1,-2.602286078E-2,1.978999823E-1,8.400822282E-1
1.780388838E1,-5.253443494E-3,2.302758396E-1,6.244468093E-1
1.781395303E1,1.340238303E-1,2.626516819E-1,5.273191929E-1
1.782395268E1,3.533244431E-1,2.168368101E-1,5.939035416E-1
1.783393522E1,4.852713645E-1,6.045529619E-2,7.307373285E-1
1.784389718E1,3.685960770E-1,9.142618626E-3,7.869369388E-1
1.785388707E1,9.187413007E-2,3.846414760E-2,7.844935060E-1
1.786393415E1,-1.072679386E-1,9.142618626E-3,7.753304839E-1
1.787388949E1,-2.166128308E-1,4.701626673E-2,7.551719546E-1
1.788388549E1,-2.783102095E-1,2.180585265E-1,7.747196555E-1
1.789391957E1,-2.642602921E-1,2.986927330E-1,8.797884583E-1
1.790389072E1,-1.799609065E-1,2.424931526E-1,9.592009187E-1
1.791394434E1,-8.038986474E-2,2.492126524E-1,9.127751589E-1
1.792393899E1,-1.808161288E-2,2.815885246E-1,7.765522599E-1
1.793390045E1,-4.801401123E-2,2.388279438E-1,5.541973114E-1
1.794392315E1,-1.811826378E-1,2.076738179E-1,2.121127844E-1
1.795394845E1,-2.880840600E-1,1.464040577E-2,-1.971669346E-1
1.796388403E1,-1.695761979E-1,-1.166956276E-1,-7.798714563E-3
1.797388834E1,-3.701843694E-2,-2.290948331E-1,3.129055500E-1
1.798388388E1,5.766567588E-2,-2.724662423E-1,6.140620708E-1
1.799390742E1,7.965682447E-2,-3.439374864E-1,7.820500135E-1
1.800387976E1,6.805038452E-2,-5.840075016E-1,7.313482165E-1
1.801393565E1,3.506366163E-2,-9.670200348E-1,4.106439948E-1
1.802394915E1,-2.357940003E-2,-1.265122294E0,-1.940515451E-2
1.803388995E1,-4.740314558E-2,-1.327430606E0,-2.967379689E-1
1.804389284E1,5.131265149E-3,-1.161275268E0,-3.156747818E-1
1.805393257E1,1.071457639E-1,-8.008646965E-1,-1.226413846E-1
1.806389249E1,1.541823745E-1,-3.463809490E-1,1.797369272E-1
1.807388680E1,1.612683944E-2,5.862270668E-2,4.747848213E-1
1.808387588E1,-3.204599023E-1,2.125607431E-1,6.391075253E-1
1.809395715E1,-8.189259171E-1,1.239852756E-1,6.354423761E-1
1.810460957E1,-1.367482901E0,-3.665395081E-1,4.705087841E-1
1.811388095E1,-1.843346953E0,-1.335982680E0,1.620218307E-1
1.812393184E1,-2.180544615E0,-2.142324686E0,-1.537955105E-1
1.813393388E1,-2.335093498E0,-2.334136486E0,-3.315573037E-1
1.814389299E1,-2.316767454E0,-2.089179516E0,-3.486615121E-1
1.815394988E1,-2.187263966E0,-1.767253518E0,-2.582534552E-1
1.816388738E1,-2.119457960E0,-1.448381901E0,-1.586824208E-1
1.817388065E1,-2.302106857E0,-1.309104562E0,-1.708997339E-1
1.818394761E1,-2.780414343E0,-1.613926411E0,-2.613077760E-1
1.819391215E1,-3.320419073E0,-2.138048649E0,-3.168965280E-1
1.820388588E1,-3.692435980E0,-2.419657469E0,-3.254486322E-1
1.821388718E1,-3.853093624E0,-2.342077732E0,-3.504941165E-1
1.822394376E1,-3.724200964E0,-2.059247017E0,-3.541592956E-1
1.823387938E1,-3.310034513E0,-1.534513831E0,-2.796337306E-1
1.824394461E1,-2.801183701E0,-9.346441627E-1,-1.800627112E-1
1.825393938E1,-2.338147879E0,-5.809531808E-1,-1.556281000E-1
1.826391030E1,-1.917872548E0,-5.076493621E-1,-1.898365468E-1
1.827391992E1,-8.384736180E-1,-7.660453320E-1,-3.938655555E-1
1.828394434E1,-1.952325404E-1,-7.495520115E-1,-5.276450515E-1
1.829390015E1,3.404962718E-1,-5.577403307E-1,-5.343645811E-1
1.830394753E1,6.740287542E-1,-3.243898153E-1,-4.341826439E-1
1.831388942E1,7.870388031E-1,-2.590272129E-1,-2.228232771E-1
1.832394038E1,6.685309410E-1,-5.210884213E-1,5.145521462E-2
1.833393407E1,4.034154117E-1,-8.369057178E-1,3.116838038E-1
1.834392838E1,1.010371074E-1,-9.340332747E-1,4.967759550E-1
1.835388572E1,-1.646892726E-1,-9.383093715E-1,5.682471991E-1
1.836393914E1,-3.552792370E-1,-9.896220565E-1,5.346496105E-1
1.837393822E1,-4.041484594E-1,-9.890111685E-1,4.314134121E-1
1.838395495E1,-3.009122312E-1,-9.297572374E-1,3.342858255E-1
1.839390392E1,-1.408655345E-1,-9.285355210E-1,2.768644989E-1
1.840388457E1,-2.357940003E-2,-9.981741309E-1,2.145562321E-1
1.841388376E1,2.162462659E-2,-9.584679008E-1,1.125417352E-1
1.842389622E1,-3.029891849E-2,-7.458868027E-1,3.129666299E-2
1.843389699E1,-2.068389803E-1,-4.789387286E-1,4.290310293E-2
1.844394353E1,-4.395786524E-1,-2.413121313E-1,8.627452701E-2
1.845388657E1,-6.234490275E-1,1.219694316E-2,7.772241533E-2
1.846392264E1,-7.444003820E-1,2.492126524E-1,3.862704337E-2
1.847389295E1,-8.396953344E-1,3.304577470E-1,-3.101159260E-2
1.848388880E1,-9.239947200E-1,2.534887195E-1,-1.275282949E-1
1.849389084E1,-9.869138598E-1,1.068810523E-1,-2.374840379E-1
1.850399564E1,-9.814161062E-1,-8.065457642E-2,-3.584353626E-1
1.851388972E1,-8.653516769E-1,-1.954972446E-1,-5.080973506E-1
1.852388811E1,-6.601009369E-1,-9.103928506E-2,-6.785287857E-1
1.853389434E1,-4.450764358E-1,8.488990366E-2,-8.300233483E-1
1.854388676E1,-3.045774102E-1,2.217237055E-1,-8.892772794E-1
1.855392945E1,-2.459343523E-1,3.017470539E-1,-8.550688624E-1
1.856389618E1,-2.196671516E-1,3.500054181E-1,-7.622173429E-1
1.857392349E1,-1.848478317E-1,4.562959671E-1,-6.296595335E-1
1.858388514E1,-1.420872658E-1,5.748038888E-1,-4.781649411E-1
1.859401361E1,-1.097114012E-1,5.399845243E-1,-2.924619019E-1
1.860390507E1,-1.426981241E-1,4.746219218E-1,-3.004031479E-1
1.861389072E1,-1.909564883E-1,3.640553355E-1,-3.523267210E-1
1.862388564E1,-2.337170541E-1,2.602082193E-1,-3.950872719E-1
1.863394418E1,-2.489886880E-1,1.789631546E-1,-4.262413979E-1
1.864395980E1,-2.526538670E-1,1.233744174E-1,-4.543412030E-1
1.865388253E1,-2.740341425E-1,1.636915207E-1,-4.341826439E-1
1.866388303E1,-2.899166644E-1,1.948456466E-1,-3.578245044E-1
1.867394899E1,-2.807536721E-1,1.136005670E-1,-2.826880813E-1
1.868389226E1,-3.094643354E-1,2.685771137E-2,-2.906293273E-1
1.869390584E1,-4.444655478E-1,9.753484279E-3,-3.810373843E-1
1.870388638E1,-6.735399961E-1,-8.615235984E-2,-4.378478527E-1
1.871394672E1,-9.404881001E-1,-3.304984570E-1,-3.902003467E-1
1.872394503E1,-1.184223294E0,-5.052059293E-1,-2.521448135E-1
1.873389514E1,-1.381532788E0,-4.697757363E-1,-1.183653250E-1
1.874388849E1,-1.540968657E0,-4.777169824E-1,-9.576331079E-2
1.875389499E1,-1.694295764E0,-6.389853954E-1,-2.619186640E-1
1.876392280E1,-1.832351327E0,-6.017225981E-1,-4.506760240E-1
1.877389607E1,-1.958800435E0,-3.616525829E-1,-5.734599829E-1
1.878388830E1,-2.073643208E0,-1.686191708E-1,-6.443203092E-1
1.879392195E1,-2.152444839E0,-1.447954178E-1,-6.534833312E-1
1.880389253E1,-2.124345064E0,-8.126543462E-2,-5.771251321E-1
1.881394511E1,-1.905044317E0,2.807943895E-2,-4.604498446E-1
1.882393280E1,-1.476216912E0,1.740762293E-1,-3.547701836E-1
1.883389484E1,-9.154426455E-1,2.296649814E-1,-2.918510437E-1
1.884388553E1,-3.338989615E-1,1.685784459E-1,-2.716924846E-1
1.885390580E1,2.024407387E-1,2.553212941E-1,-3.205617070E-1
1.886393772E1,6.300464272E-1,4.758436382E-1,-4.518977404E-1
1.887388341E1,8.798903227E-1,5.289889574E-1,-6.204965711E-1
1.888388634E1,9.183748364E-1,4.269744456E-1,-7.506108880E-1
1.889390734E1,7.992560863E-1,3.451184928E-1,-7.536652088E-1
1.890390314E1,6.587570906E-1,4.117028117E-1,-6.131662130E-1
1.891389222E1,6.153856516E-1,6.591032743E-1,-4.042502642E-1
1.892388522E1,5.707924962E-1,1.774543166E0,4.107050598E-2
1.893399595E1,4.339586496E-1,2.046378374E0,2.670906484E-1
1.894394399E1,3.020117581E-1,1.935200691E0,3.972049356E-1
1.895393930E1,2.116037160E-1,1.576011896E0,3.465031385E-1
1.896394345E1,2.061059326E-1,1.171008229E0,1.033787578E-1
1.897393268E1,3.814242482E-1,8.008239865E-1,-1.910582781E-1
1.898393595E1,6.893003583E-1,4.813414514E-1,-3.908112049E-1
1.899388415E1,1.088195324E0,7.482895851E-1,-5.276450515E-1
1.900393618E1,1.526796579E0,1.210103631E0,-6.168313622E-1
1.901393791E1,1.843835711E0,1.338996172E0,-7.029634118E-1
1.902392914E1,1.962343574E0,1.047002673E0,-8.245255947E-1
1.903388834E1,1.936687231E0,7.415700555E-1,-9.747984409E-1
1.904393676E1,1.867659450E0,7.201898098E-1,-1.027943611E0
1.905392995E1,1.770531893E0,8.686300516E-1,-8.446841240E-1
1.906394561E1,1.506638050E0,1.098926187E0,-4.488434196E-1
1.907389153E1,1.028330564E0,1.168564796E0,-9.020444937E-3
1.908388426E1,5.414710045E-1,8.551909924E-1,3.098512292E-1
1.909389311E1,1.376890242E-1,2.589865029E-1,3.636073470E-1
1.910388938E1,-1.378111988E-1,-1.722843647E-1,2.322713286E-1
1.911394668E1,-6.695083529E-2,-1.895718277E-2,1.247590408E-1
1.912391414E1,3.172833920E-1,3.958203197E-1,3.557271883E-2
1.913388695E1,6.666983366E-1,8.069326282E-1,-1.550172269E-1
1.914388561E1,8.890532851E-1,1.105034828E0,-3.364441991E-1
1.915389015E1,1.197540283E0,1.083654523E0,-4.036393762E-1
1.916391153E1,1.514579296E0,9.498751163E-1,-4.738889039E-1
1.917389253E1,1.699060559E0,8.674083352E-1,-6.223291755E-1
1.918417703E1,1.716164827E0,6.352795362E-1,-7.194567323E-1
1.919390422E1,1.599489570E0,1.142114401E-1,-6.986873150E-1
1.920392088E1,1.340482712E0,-3.341636658E-1,-6.266052127E-1
1.921394968E1,8.395732045E-1,-3.317202032E-1,-6.241617799E-1
1.922388991E1,1.731192023E-1,-1.551801264E-1,-6.443203092E-1
1.923394868E1,-4.304156601E-1,5.068145320E-2,-6.333247423E-1
1.924422480E1,-5.892406106E-1,1.015848517E0,-1.134784073E-1
1.925388430E1,-1.219287068E-1,1.054943919E0,2.829731405E-1
1.926388457E1,3.068986833E-1,6.371121407E-1,4.637892544E-1
1.927390303E1,6.954089999E-1,1.708386838E-2,5.322061181E-1
1.928405961E1,1.134010315E0,-3.176702857E-1,5.395365357E-1
1.929393614E1,1.524963975E0,-1.814473420E-1,5.615276694E-1
1.930389553E1,1.670960784E0,1.490307599E-1,7.637240887E-1
1.931389045E1,1.566502810E0,3.909333944E-1,1.176058173E0
1.932389234E1,1.325821996E0,5.937407017E-1,1.516920924E0
1.933388591E1,1.017335057E0,9.419338703E-1,1.568233609E0
1.934388672E1,6.740287542E-1,1.232094765E0,1.358706832E0
1.935389661E1,4.437325001E-1,1.220488310E0,9.811921120E-1
1.936393972E1,5.109277368E-1,8.875668645E-1,5.126584768E-1
1.937389665E1,8.835555315E-1,4.746219218E-1,6.672684103E-2
1.938389230E1,1.382632375E0,1.239852756E-1,-3.340007365E-1
1.939389365E1,1.788246989E0,-2.083254158E-1,-7.328957915E-1
1.940394553E1,2.014266968E0,-4.068566263E-1,-1.081699729E0
1.941388526E1,1.992275953E0,-4.624453485E-1,-1.313217759E0
1.942389453E1,1.800464272E0,-4.422867894E-1,-1.279009223E0
1.943389014E1,1.552452922E0,-2.865161598E-1,-9.839614034E-1
1.944425472E1,1.263513684E0,-3.300708160E-2,-5.771251321E-1
1.945388726E1,8.713381886E-1,9.588548541E-2,-1.611258835E-1
1.946390164E1,3.930307031E-1,1.459764242E-1,1.864564419E-1
1.947388541E1,-3.640757129E-2,2.944166958E-1,3.929288983E-1
1.948388488E1,-2.361605167E-1,5.729712844E-1,4.234721661E-1
1.949395645E1,-1.441642176E-2,8.619105220E-1,3.122946918E-1
1.950389264E1,4.351803958E-1,6.426098943E-1,9.116145223E-2
1.951394180E1,8.261342049E-1,9.649634361E-2,-3.144530654E-1
1.952389161E1,9.959547520E-1,-4.160195887E-1,-8.275799155E-1
1.953389438E1,9.006597400E-1,-6.481483579E-1,-1.229529142E0
1.954394207E1,6.807482243E-1,-5.907270312E-1,-1.331543684E0
1.955394672E1,4.437325001E-1,-3.683721125E-1,-1.129347324E0
1.956388034E1,2.293187976E-1,-2.132123411E-1,-8.025344014E-1
1.957398541E1,2.116037160E-1,-3.188920319E-1,-3.883677721E-1
1.958393641E1,4.345695376E-1,-4.447302520E-1,-3.639331460E-1
1.959389941E1,6.514267325E-1,-5.522425175E-1,-3.902003467E-1
1.960389122E1,7.509977818E-1,-6.866328716E-1,-3.688200712E-1
1.961387518E1,7.088480592E-1,-6.548678875E-1,-2.808554769E-1
1.962394768E1,5.152037740E-1,-4.288477600E-1,-1.446325183E-1
1.963387830E1,2.006081343E-1,-1.521258056E-1,1.297070365E-2
1.964388065E1,-1.524719745E-1,3.644831479E-3,1.186503842E-1
1.965388276E1,-4.542393982E-1,3.846414760E-2,1.247590408E-1
1.966394038E1,-6.436076164E-1,4.579453543E-2,4.290310293E-2
1.967388126E1,-7.199657559E-1,-9.183337912E-3,-5.544620380E-2
1.968388957E1,-7.083593011E-1,-4.766784981E-2,-9.698504210E-2
1.969393007E1,-5.385387540E-1,-2.873102576E-2,-1.641802192E-1
1.970388572E1,-1.524719745E-1,-6.312243640E-4,-2.643621266E-1
1.971388561E1,1.877799630E-1,-1.191390902E-1,-3.309464157E-1
1.972388249E1,3.533244431E-1,-1.783930212E-1,-4.396804273E-1
1.973388572E1,4.028045237E-1,-1.997732967E-1,-5.581883192E-1
1.974393553E1,3.747047484E-1,-1.899994612E-1,-5.093190670E-1
1.975391630E1,2.684141695E-1,-8.126543462E-2,-2.448144257E-1
1.976397961E1,1.676214188E-1,1.514742225E-1,6.550510973E-2
1.977388134E1,1.389107555E-1,4.190331995E-1,3.293989003E-1
1.978389468E1,1.309694946E-1,5.741930008E-1,4.619566500E-1
1.979388191E1,9.370672703E-2,5.980167389E-1,4.118657112E-1
1.980390488E1,5.338962376E-2,5.265455246E-1,2.530407608E-1
1.981395338E1,-2.541199699E-2,4.141462743E-1,6.061819568E-2
1.982394764E1,-1.207069755E-1,3.487837017E-1,-5.117014796E-2
1.983396738E1,-1.341460049E-1,3.793269396E-1,-5.300274119E-2
1.984394088E1,-8.405505866E-2,5.161607862E-1,8.566366136E-2
1.985388391E1,-4.862487316E-2,6.737640500E-1,3.000773787E-1
1.986394841E1,7.574727759E-3,6.401664615E-1,3.782681227E-1
1.987394741E1,1.340238303E-1,4.123136699E-1,2.463212311E-1
1.988395172E1,2.891835868E-1,1.551394016E-1,3.740531579E-2
1.989394938E1,4.590041339E-1,3.418809548E-2,-6.155485660E-2
1.990398372E1,3.178942800E-1,2.919732332E-1,2.096693218E-1
1.991394984E1,8.332201838E-2,5.192151070E-1,5.089932680E-1
1.992394857E1,-6.328564137E-2,5.741930008E-1,6.262794137E-1
1.993394314E1,-8.955284953E-2,5.448714495E-1,5.474777818E-1
1.994388230E1,-6.084217876E-2,4.636263549E-1,3.428379297E-1
1.995388953E1,1.734857075E-2,2.699820697E-1,1.009352952E-1
1.996391926E1,1.187522039E-1,9.955066442E-2,-5.666793510E-2
1.997389695E1,1.492954642E-1,3.235549852E-2,-1.006502360E-1
1.998393288E1,7.293730974E-2,-4.296416417E-3,-6.644178182E-2
1.999394161E1,-1.441642176E-2,-1.590285636E-2,2.585994080E-3
2.000394761E1,-5.656612664E-2,-2.078977786E-2,5.695300177E-2
2.001394353E1,-8.161159605E-2,-4.278092831E-2,8.260934055E-2
2.002390111E1,-1.653001457E-1,-1.284852996E-2,1.589674950E-1
2.003394203E1,-2.477669567E-1,1.203200966E-1,3.373401463E-1
2.004388588E1,-2.471560836E-1,3.084665835E-1,5.071606636E-1
2.005389061E1,-1.707979292E-1,4.129245281E-1,6.079534292E-1
2.006392903E1,-4.068362713E-2,4.172005951E-1,6.391075253E-1
2.007393441E1,1.425759345E-1,3.396207094E-1,5.596950650E-1
