"Time (s)","Linear Acceleration x (m/s^2)","Linear Acceleration y (m/s^2)","Linear Acceleration z (m/s^2)"
0.000000000E0,-2.772772312E-2,3.490357399E-1,1.481256485E-1
3.835361700E-2,-7.561171055E-2,2.676327229E-1,7.706174850E-1
6.251113800E-2,-1.665912867E-1,2.819979191E-1,7.885742188E-1
7.958064800E-2,-4.914605618E-2,8.470392227E-2,2.221632004E-1
9.312561500E-2,7.233071327E-2,-1.234755516E-1,-2.866544724E-1
1.048881370E-1,2.222671509E-1,-3.306760788E-1,-6.983461380E-1
1.157685130E-1,3.462760448E-1,-5.152270794E-1,-1.006849766E0
1.262139890E-1,3.524549007E-1,-4.233524799E-1,-9.117708206E-1
1.364450350E-1,5.860850811E-1,-4.950540066E-1,-1.404175282E0
1.465612500E-1,1.353229284E-1,-4.043819904E-1,-8.748440742E-1
1.566197040E-1,-1.635434628E-1,2.883191109E-1,8.158397675E-1
1.666511230E-1,-3.405042887E-1,5.321800709E-1,1.925354004E0
1.766703710E-1,-1.652080417E-1,3.400208950E-1,1.596307755E0
1.866755530E-1,-3.793901205E-2,8.614516258E-2,4.185333252E-1
1.966633750E-1,4.574966431E-2,-6.951379776E-2,-3.228406906E-1
2.066527860E-1,3.390729427E-2,-6.813859940E-2,-2.483596802E-1
2.166498950E-1,-8.267199993E-2,1.304790974E-1,3.966579437E-1
2.266555840E-1,-2.422363758E-1,3.786368370E-1,1.128351212E0
2.366513900E-1,-2.205969095E-1,3.513379097E-1,1.370869637E0
2.466512550E-1,-1.548886299E-1,1.557009220E-1,1.019550323E0
2.566570530E-1,1.342147589E-2,-5.665326118E-2,-5.053777695E-1
2.666623750E-1,5.399190187E-1,1.370310783E-2,-1.183020592E0
2.766703240E-1,-2.870392799E-2,-5.692589283E-2,-5.294036865E-1
2.866637410E-1,-1.323479414E-2,3.576302528E-2,2.245769501E-1
2.967100260E-1,-5.082666874E-2,1.064333916E-1,4.043254852E-1
3.073271300E-1,-5.312401056E-2,2.560720444E-1,8.494920731E-1
3.170118360E-1,4.557952285E-2,3.168485165E-1,1.351125717E0
3.269444200E-1,1.199548841E-1,2.733495235E-1,1.466092110E0
3.368002310E-1,1.958084702E-1,4.199802876E-1,1.929220200E0
3.467228100E-1,1.112188399E-1,5.457072258E-1,2.214023590E0
3.566836760E-1,5.256491899E-2,2.943120003E-1,9.629364014E-1
3.666866090E-1,-7.281979918E-2,-5.271990299E-1,-1.366308212E0
3.766878830E-1,-1.988807321E-1,-8.324599266E-1,-2.074048996E0
3.866660200E-1,-1.540637016E-1,-7.489333153E-1,-1.912559986E0
3.966628770E-1,-7.939612865E-2,-5.985648632E-1,-1.634585857E0
4.066701330E-1,-6.397455931E-2,-2.507050037E-1,-7.886352539E-1
4.166746260E-1,5.302619934E-2,1.393191814E-1,4.514465332E-1
4.266796610E-1,1.204204559E-1,3.498055935E-1,1.117202759E0
4.366791400E-1,6.574296951E-2,2.606544495E-1,8.610191345E-1
4.466739370E-1,4.038310051E-2,1.155507565E-1,4.095096588E-1
4.566615670E-1,2.536475658E-2,5.499982834E-2,2.018499374E-1
4.666560550E-1,-1.190006733E-3,-3.340005875E-3,-1.184272766E-2
4.766634910E-1,-3.254175186E-3,-2.651524544E-2,-8.810710907E-2
4.866822280E-1,9.139418602E-3,9.348559380E-2,2.916002274E-1
4.966950770E-1,2.158653736E-2,1.499528885E-1,4.660444260E-1
5.067038100E-1,2.555984259E-2,1.337203979E-1,4.212808609E-1
5.166868300E-1,3.155308962E-2,1.994218826E-1,6.731214523E-1
5.267049940E-1,2.042340115E-3,3.534028530E-1,1.212800980E0
5.366901340E-1,-1.830853522E-2,3.271872997E-1,1.136725426E0
5.467076270E-1,-1.158113778E-2,-1.428813934E-1,-4.405632019E-1
5.566963350E-1,-1.030915380E-1,-3.948550224E-1,-1.157334328E0
5.666868430E-1,-1.365602016E-1,-3.433864117E-1,-1.058129311E0
5.767053660E-1,-1.290817261E-1,-2.693147659E-1,-9.772377014E-1
5.867153580E-1,-8.762991428E-2,-1.504390240E-1,-5.487337112E-1
5.967235460E-1,-3.247737885E-3,-9.262323380E-3,-2.890491486E-2
6.066958330E-1,1.235698164E-2,2.460167408E-1,7.735614777E-1
6.167100150E-1,-5.339318514E-2,3.276667595E-1,1.153492928E0
6.266900860E-1,-1.491209865E-2,1.617763042E-1,5.192432404E-1
6.366758140E-1,-2.026768029E-2,-3.825099468E-1,-1.198444366E0
6.467013900E-1,-2.268124223E-1,-6.365888119E-1,-2.074906826E0
6.567674470E-1,-2.778462172E-1,-4.888329506E-1,-1.663652897E0
6.667416870E-1,-7.745981216E-2,-1.326026917E-1,-5.346832275E-1
6.767285380E-1,3.209376335E-2,6.476497650E-2,2.962436676E-1
6.867260400E-1,-2.897620201E-3,-9.778738022E-3,-3.774929047E-2
6.966983300E-1,2.136999369E-2,1.317152977E-1,4.689607620E-1
7.066808010E-1,2.537082136E-2,2.602519989E-1,1.001586914E0
7.166745750E-1,2.196639776E-2,2.163634300E-1,8.097734451E-1
7.266701930E-1,1.067790389E-2,7.111120224E-2,2.613878250E-1
7.366911370E-1,-3.524428606E-2,-1.116309166E-1,-4.297094345E-1
7.467074930E-1,-1.357517242E-1,-2.501204014E-1,-9.612245560E-1
7.567138640E-1,-1.076261997E-1,-1.819047928E-1,-7.287521362E-1
7.667074920E-1,-3.017282486E-2,-6.543946266E-2,-2.714681625E-1
7.767293820E-1,1.435321569E-2,4.955267906E-2,1.923475266E-1
7.867027310E-1,3.238397837E-2,1.662492752E-1,6.327705383E-1
7.967256560E-1,3.028267622E-2,2.300956249E-1,9.077396393E-1
8.067310030E-1,4.144057631E-2,2.370431423E-1,9.316616058E-1
8.167056570E-1,5.665898323E-2,2.668030262E-1,1.012654305E0
8.266833300E-1,4.548281431E-2,2.281835079E-1,8.468570709E-1
8.367017630E-1,1.987296343E-2,1.444523335E-1,5.188627243E-1
8.466870950E-1,-5.396395922E-3,-5.381727219E-2,-1.830053329E-1
8.567473380E-1,-3.564700484E-2,-1.894307137E-1,-6.701993942E-1
8.667097670E-1,-4.039570689E-2,-2.099859715E-1,-7.933883667E-1
8.767080390E-1,-1.990544796E-2,-9.718298912E-2,-3.631181717E-1
8.867291750E-1,4.201143980E-3,4.432535172E-2,1.672525406E-1
8.967016470E-1,-2.902265638E-3,1.259992123E-1,4.684238434E-1
9.066813060E-1,-5.981907248E-3,1.394951344E-1,5.271739960E-1
9.166746930E-1,1.300412696E-4,1.524751186E-1,5.827388763E-1
9.266705210E-1,8.454225957E-3,1.808488369E-1,7.665567398E-1
9.366698580E-1,1.336172223E-2,1.420269012E-1,6.410989761E-1
9.466919500E-1,2.405226231E-3,7.282090187E-2,3.148040771E-1
9.566759960E-1,-6.757155061E-4,-3.456091881E-2,-1.433706284E-1
9.666844810E-1,-3.104977310E-3,-7.028508186E-2,-2.917146683E-1
9.766760310E-1,1.154653728E-3,-2.489185333E-2,-1.028881073E-1
9.866892670E-1,-4.555821419E-3,2.679491043E-2,1.065816879E-1
9.968297510E-1,-2.516597509E-2,1.123392582E-1,4.604778290E-1
1.006771281E0,-1.779712737E-2,1.723763943E-1,7.682657242E-1
1.016716219E0,1.052524149E-1,2.229068279E-1,6.968679428E-1
1.026688150E0,-2.601158619E-2,8.794879913E-2,3.572683334E-1
1.036702769E0,1.003674567E-1,-4.127407074E-2,1.338768005E-2
1.046720155E0,1.283686757E-1,3.189086914E-2,-2.582635880E-1
1.056693291E0,1.319491416E-1,1.745295525E-2,-1.284675598E-1
1.066681724E0,5.764691532E-2,-5.947899818E-2,-2.583694458E-2
1.076703460E0,2.695088089E-2,2.262830734E-3,-1.236925125E-1
1.086676886E0,-7.843825966E-2,8.520412445E-2,-2.117109299E-1
1.096671983E0,-1.723177582E-1,7.710742950E-2,-3.232135773E-1
1.106669147E0,-1.911990941E-1,2.144598961E-2,-1.833734512E-1
1.116678902E0,-5.569412559E-2,-1.889419556E-2,-1.592636108E-4
1.126681760E0,-1.436208934E-1,2.269768715E-2,3.537178040E-2
1.136665286E0,-2.105756104E-1,-2.040171623E-2,-1.245613098E-1
1.146665799E0,-6.478485465E-2,-3.265881538E-2,-9.150981903E-2
1.156678305E0,-1.638828814E-1,8.155107498E-2,1.327905655E-1
1.166667443E0,-1.700308025E-1,1.050562859E-1,4.720802307E-1
1.176654916E0,-1.282181740E-1,1.397156715E-2,6.037473679E-1
1.186665575E0,-1.873531640E-1,6.961297989E-2,5.684776306E-1
1.196659558E0,-1.469786167E-1,1.153934002E-1,6.161041260E-1
1.206669242E0,-3.753747046E-2,1.808953285E-2,3.800821304E-1
1.216657680E0,-5.475541949E-2,-3.661322594E-2,2.544279099E-1
1.226666380E0,-2.691152692E-2,5.013370514E-2,3.498172760E-2
1.236674615E0,-7.105888426E-2,5.235266685E-2,-2.022237778E-1
1.246665059E0,-1.704840362E-2,-3.159189224E-2,-7.851123810E-2
1.256683897E0,5.680575967E-3,-6.845903397E-2,3.034114838E-2
1.266717373E0,-7.766538858E-2,2.352833748E-2,-1.047925949E-1
1.276724707E0,-7.541135699E-2,7.099509239E-2,-2.930622101E-1
1.286701951E0,-1.776606590E-2,4.585671425E-2,-3.008975983E-1
1.296711362E0,4.621827602E-2,-5.896091461E-4,-7.437610626E-2
1.306859298E0,-6.311120093E-2,1.458311081E-2,2.068624496E-1
1.316771112E0,-1.197288781E-1,1.699638367E-2,1.755561829E-1
1.326719673E0,-2.552521229E-2,-9.531021118E-3,4.389228821E-1
1.336705261E0,4.003055394E-2,-1.474809647E-2,3.252677917E-1
1.346682594E0,-9.794034064E-2,-1.957583427E-2,1.023149490E-1
1.356669933E0,-1.595994532E-1,6.072044373E-3,4.343891144E-2
1.366683526E0,-2.265789509E-1,5.634307861E-2,1.487455368E-1
1.376703861E0,-2.833802998E-1,3.730988503E-2,-1.438140869E-3
1.386676663E0,-1.762390286E-1,-2.833700180E-2,-3.556203842E-1
1.396701199E0,-5.100169033E-2,-4.165959358E-2,-2.555799484E-1
1.406698851E0,-6.489652395E-2,-1.562690735E-2,-7.038402557E-2
1.416683773E0,-1.010818481E-1,5.695724487E-2,-1.301555634E-1
1.426668177E0,-1.658778042E-1,1.434993744E-2,-7.070446014E-2
1.436662032E0,-1.927480549E-1,2.264976501E-4,2.023124695E-1
1.446672133E0,-2.000711411E-1,3.406906128E-2,5.899829865E-1
1.456667145E0,-1.855809689E-1,1.225345135E-1,9.216938019E-1
1.466670016E0,-8.303463459E-2,2.708101273E-2,6.065378189E-1
1.476685913E0,-1.706323028E-2,-4.081368446E-2,2.317686081E-1
1.486673516E0,-2.677053213E-2,-2.405858040E-2,-4.494857788E-2
1.496669644E0,-2.878651023E-2,-3.781318665E-4,-2.138872147E-1
1.506659516E0,-5.409075320E-2,4.975795746E-2,-2.121505737E-1
1.516659202E0,-1.320178509E-1,7.759404182E-2,-2.043657303E-1
1.526678641E0,-1.744163632E-1,2.111577988E-2,-1.816434860E-1
1.536674937E0,-5.450688303E-2,6.240606308E-2,1.665744781E-1
1.546678278E0,-1.662159711E-1,9.417200089E-2,4.298124313E-1
1.556667910E0,-1.915605962E-1,8.117318153E-2,5.836105347E-1
1.566697649E0,-3.771930933E-3,3.760719299E-2,5.017099380E-1
1.576703865E0,1.962675154E-2,-2.100253105E-2,3.119277954E-1
1.586685203E0,4.733056575E-2,-3.122806549E-2,2.036876678E-1
1.596703430E0,-1.212061942E-2,4.934096336E-2,1.292877197E-1
1.606706197E0,-4.639174044E-2,2.316546440E-2,8.667564392E-2
1.616712946E0,-1.638264060E-1,5.513787270E-2,5.506057739E-1
1.626694725E0,-1.362976730E-1,9.663891792E-2,6.563158035E-1
1.636676729E0,-1.901838332E-1,8.510565758E-2,-1.451969147E-1
1.646675251E0,-1.788221598E-1,5.948066711E-2,-4.869709015E-1
1.656697877E0,-1.104174554E-2,-3.470039368E-2,-3.453025818E-1
1.666694305E0,1.064989939E-1,2.227783203E-3,1.172580719E-1
1.676684231E0,-1.851703227E-2,1.842770576E-1,7.104139328E-1
1.686708329E0,-9.665861726E-2,1.116662025E-1,5.822114944E-1
1.696718204E0,-3.038869798E-2,5.354642868E-2,3.971862793E-1
1.706715104E0,5.866482854E-2,-5.028867722E-2,-2.304077148E-3
1.716695284E0,1.371787786E-1,-6.557774544E-2,-3.292541504E-1
1.726704586E0,6.574109197E-2,-7.598400116E-3,-6.447963715E-1
1.736692929E0,-1.336101294E-1,-1.150047779E-1,-5.846967697E-1
1.746704793E0,-1.249779612E-1,-1.701419353E-1,-3.376636505E-1
1.756684206E0,-1.440491825E-1,-3.229784966E-2,-2.947807312E-2
1.766689528E0,-1.403104067E-1,9.116673470E-2,1.352891922E-1
1.776687496E0,4.854728281E-2,2.696824074E-2,2.368412018E-1
1.786723346E0,5.729567260E-2,-3.508162498E-2,3.573522568E-1
1.796727251E0,-4.628983885E-2,-2.825021744E-2,2.320909500E-1
1.806719050E0,-1.058204621E-1,2.013087273E-2,-8.192062378E-3
1.816733488E0,-1.287625283E-1,5.686450005E-2,-1.005945206E-1
1.826707207E0,-1.013600379E-1,2.257204056E-2,-1.376895905E-1
1.836793278E0,9.079568088E-3,-8.005356789E-2,-4.637451172E-1
1.846769429E0,-4.229556769E-2,-1.488566399E-1,-5.525636673E-1
1.856740139E0,-8.850606531E-2,-1.412141323E-1,-2.895336151E-1
1.866699686E0,-1.078578383E-1,-9.494614601E-2,-1.293735504E-1
1.876706018E0,-1.242905110E-1,-4.493474960E-2,7.703208923E-2
1.886708510E0,2.607010677E-2,-9.413576126E-2,1.749925613E-1
1.896725603E0,1.006369293E-1,-8.896732330E-2,1.150827408E-1
1.906704861E0,3.169050813E-2,-8.975982666E-3,8.795070648E-2
1.916715259E0,-6.912690401E-2,4.349255562E-2,4.981231689E-2
1.926711785E0,-1.148317233E-1,2.139759064E-2,-9.825611115E-2
1.936723932E0,-1.459965557E-1,3.699779510E-2,-2.008810043E-1
1.946701333E0,-1.159280837E-1,3.009629250E-2,-8.863830566E-2
1.956680918E0,-8.715127409E-2,-5.846714973E-2,1.744871140E-1
1.966698980E0,3.201118112E-2,-9.585332870E-2,2.018232346E-1
1.976683261E0,2.671842650E-2,-3.330802917E-2,-1.433029175E-1
1.986684555E0,-3.512496129E-2,-5.481481552E-2,1.936187744E-1
1.996680183E0,-9.497310221E-2,2.139377594E-2,4.581556320E-1
2.006669285E0,-5.520232767E-2,1.434874535E-1,5.666751862E-1
2.016703144E0,5.679197609E-2,1.232178211E-1,4.414997101E-1
2.026713381E0,2.724625170E-3,1.484830379E-1,1.613798141E-1
2.036699403E0,-9.382694960E-2,1.806054115E-1,-6.529808044E-2
2.046716491E0,-1.118015125E-2,8.276963234E-2,-3.058319092E-1
2.056696228E0,5.221170187E-2,5.883955956E-2,-7.826423645E-2
2.066709904E0,-1.103298664E-1,6.322979927E-2,2.334032059E-1
2.076683626E0,-1.743272394E-1,8.392786980E-2,4.375972748E-1
2.086697757E0,-8.967784047E-2,8.294939995E-2,6.035213470E-1
2.096741053E0,-8.662126958E-3,7.660126686E-2,6.597852707E-1
2.106701393E0,2.545832098E-2,7.423233986E-2,4.666919708E-1
2.116715102E0,1.210837811E-2,6.113386154E-2,1.452350616E-1
2.126695360E0,-1.467186213E-2,3.863453865E-2,1.535539627E-1
2.136769104E0,-3.937636688E-2,8.706808090E-2,3.611259460E-1
2.146730188E0,-1.062235832E-1,2.029719353E-1,2.486724854E-1
2.156704211E0,-1.334571540E-1,1.837651730E-1,-1.077356339E-1
2.166710357E0,-4.484074563E-2,8.285021782E-2,-2.207784653E-1
2.176719372E0,-8.726882190E-2,6.003379822E-2,-2.103166580E-1
2.186728841E0,-1.389524639E-1,1.168367863E-1,-1.081380844E-1
2.196704672E0,-1.080991179E-1,1.153724194E-1,-2.047863007E-1
2.206710972E0,5.593154579E-3,2.514195442E-2,-7.095623016E-2
2.216722680E0,1.254360378E-1,-8.137392998E-2,1.579122543E-1
2.226728745E0,5.280681700E-2,-4.880118370E-2,4.022998810E-1
2.236725989E0,-3.897473961E-2,7.044649124E-2,3.745555878E-1
2.246739265E0,-5.600097403E-2,4.008913040E-2,1.804189682E-1
2.256730057E0,1.691237465E-2,1.273369789E-2,8.822536469E-2
2.266734011E0,-8.663269132E-2,2.988672256E-2,3.099536896E-2
2.276704738E0,-3.863035515E-2,1.115117073E-1,8.391571045E-2
2.286693063E0,-4.067640752E-3,7.749843597E-2,7.116413116E-2
2.296690533E0,-1.184367836E-1,2.102994919E-2,-5.482807159E-1
2.306678402E0,-1.456362456E-1,2.923226357E-2,-4.428997040E-1
2.316693318E0,-1.989360154E-1,-3.107166290E-2,-1.199016571E-1
2.326700218E0,-3.068579361E-2,-1.412370205E-1,3.152132034E-1
2.336711764E0,7.925005257E-2,-1.872646809E-1,5.625381470E-1
2.346718133E0,4.623691738E-2,-6.269001961E-2,5.272464752E-1
2.356689145E0,1.500549763E-1,-4.005575180E-2,4.256134033E-1
2.366684093E0,1.536307633E-1,-1.338331699E-1,2.734804153E-1
2.376699317E0,1.732526720E-1,-1.353139877E-1,9.167098999E-2
2.386684717E0,1.665810645E-1,-7.183098793E-2,7.078742981E-2
2.396685687E0,8.788269758E-2,-3.232026100E-2,1.343545914E-1
2.406678652E0,-6.271476299E-2,-1.212263107E-2,1.724338531E-2
2.416686212E0,-4.621258080E-1,9.944081306E-2,-4.465131760E-1
2.426708953E0,-2.711282372E-1,1.701641083E-1,-4.918699265E-1
2.436726305E0,-1.521466076E-1,3.458642960E-2,-1.010627747E-1
2.446697519E0,9.426549077E-3,-4.591822624E-2,1.916189194E-1
2.456678049E0,4.029911757E-2,-6.715369225E-2,2.720270157E-1
2.466683468E0,1.818233579E-1,-8.544874191E-2,2.949199677E-1
2.476696351E0,1.747091264E-1,-1.577053070E-1,3.505516052E-1
2.486707946E0,1.170915812E-1,-7.631349564E-2,3.807277679E-1
2.496694167E0,3.596663475E-3,1.598811150E-2,3.618173599E-1
2.508529431E0,4.490256310E-2,4.685473442E-2,4.624452591E-1
2.518020717E0,2.247574925E-2,4.652738571E-2,4.632034302E-1
2.527349052E0,-6.416961551E-2,1.262671947E-1,3.648805618E-1
2.537009393E0,-1.195015907E-1,1.158146858E-1,1.141605377E-1
2.546849178E0,-4.015406966E-2,7.038474083E-2,-9.894275665E-2
2.556789706E0,-9.249523282E-2,8.147501945E-2,-1.509103775E-1
2.566731623E0,-8.768647909E-2,1.174426079E-1,-1.278009415E-1
2.576725390E0,-1.090795249E-1,7.107210159E-2,-3.565235138E-1
2.586702158E0,-2.720530629E-1,-7.335901260E-2,-4.906721115E-1
2.596726753E0,-1.428042203E-1,-8.309149742E-2,-1.414690018E-1
2.606711570E0,2.557761967E-1,1.050736904E-1,4.816188812E-1
2.616718690E0,1.245462894E-1,1.094448566E-1,6.692390442E-1
2.626690096E0,5.201837420E-2,-3.459215164E-3,2.425832748E-1
2.636710107E0,1.510397792E-1,-2.786111832E-2,6.423759460E-2
2.646689497E0,2.157155275E-1,6.798744202E-3,7.829952240E-2
2.656698384E0,4.544511437E-2,-1.030542850E-1,1.198787689E-1
2.666685385E0,-1.887944490E-1,-1.397995949E-1,5.088901520E-2
2.676678040E0,-1.000702083E-1,-3.126573563E-2,1.691017151E-1
2.686674463E0,-1.006709337E-1,7.759499550E-2,3.677654266E-1
2.696711367E0,-3.532811999E-2,3.445744514E-2,3.358449936E-1
2.706717531E0,5.481836200E-2,-8.086848259E-2,3.332090378E-1
2.716727747E0,1.163862050E-1,-9.302473068E-2,1.064872742E-1
2.726693048E0,-2.842479944E-2,-8.974575996E-2,-2.146596909E-1
2.736704083E0,-2.395662665E-2,-2.491521835E-2,-1.463947296E-1
2.746716235E0,6.327673793E-2,-1.584100723E-2,4.772949219E-2
2.756693888E0,1.006339788E-1,1.062488556E-2,2.709388733E-1
2.766704349E0,1.244397461E-1,5.130410194E-2,3.439416885E-1
2.776713753E0,1.256536841E-1,3.705263138E-2,2.306051254E-1
2.786718935E0,1.823097467E-1,6.423115730E-2,-5.028820038E-2
2.796701392E0,8.415871859E-2,1.038932800E-2,-1.363286972E-1
2.806684582E0,1.621001959E-1,-9.135818481E-2,9.863853455E-3
2.816706158E0,2.052800059E-1,-1.481978893E-1,4.896450043E-2
2.826686369E0,1.341624856E-1,-1.272413731E-1,7.110118866E-2
2.836717282E0,3.981453180E-2,1.635098457E-2,1.827621460E-1
2.846696565E0,-7.187420130E-2,1.126444340E-1,2.663297653E-1
2.856703149E0,-1.488091052E-1,-1.098537445E-2,2.148561478E-1
2.866720153E0,5.295264721E-2,-4.032564163E-2,1.080722809E-1
2.876723212E0,1.764025092E-1,-4.752922058E-2,1.667976379E-3
2.886721434E0,2.646902204E-1,-1.026761532E-1,-1.227579117E-1
2.896724045E0,8.548957109E-2,-7.387137413E-2,-3.052282333E-1
2.906720062E0,3.049165010E-2,-1.448345184E-2,-3.401975632E-1
2.916721571E0,7.840216160E-3,-1.088070869E-2,-9.803676605E-2
2.926718402E0,-3.995597363E-3,-1.615238190E-2,1.252899170E-1
2.936738702E0,-5.125439167E-2,6.358385086E-3,2.694101334E-1
2.946736429E0,-1.755022407E-1,-2.219676971E-4,4.329032898E-1
2.956702177E0,-1.052668691E-1,6.407713890E-2,5.573987961E-1
2.966713493E0,-5.190140009E-2,6.718182564E-2,3.885259628E-1
2.976717863E0,1.119064689E-1,2.157735825E-2,2.656145096E-1
2.986718279E0,1.901181340E-1,-3.364706039E-2,2.074012756E-1
2.996733794E0,1.123766303E-1,-1.599884033E-2,9.797668457E-2
3.006707398E0,5.007529259E-2,3.036785126E-2,-1.148214340E-1
3.016694335E0,2.486169338E-2,1.018357277E-2,-3.390722275E-1
3.026684669E0,-3.075462580E-2,-9.319782257E-3,-3.535337448E-1
3.036675162E0,-1.910870373E-1,3.800415993E-2,-1.227817535E-1
3.046673294E0,-2.050061524E-1,8.815741539E-2,5.765628815E-2
3.056667590E0,-2.517650425E-1,2.475380898E-2,1.863870621E-1
3.066699431E0,-5.207073689E-2,2.147531509E-2,2.640647888E-1
3.076688543E0,4.227322340E-2,1.161241531E-2,3.282442093E-1
3.086705119E0,-3.214406967E-2,-1.169347763E-2,2.438774109E-1
3.096688849E0,2.988213301E-2,9.908199310E-3,1.594572067E-1
3.106680156E0,-5.801761150E-2,-1.001930237E-2,7.570552826E-2
3.116842367E0,-1.788840592E-1,-1.545572281E-2,-1.196098328E-2
3.126752761E0,-2.184993923E-1,-7.406902313E-2,-1.132507324E-1
3.136713882E0,-8.238601685E-2,-1.150631905E-1,-8.944320679E-2
3.146718423E0,-1.719489992E-1,6.020784378E-3,7.766723633E-2
3.156732193E0,-2.727198005E-1,1.537466049E-1,1.993570328E-1
3.166707155E0,1.052212119E-1,-1.024374962E-1,7.126979828E-1
3.176683982E0,3.774702549E-2,-1.082670689E-1,6.677083969E-1
3.186674107E0,1.107407212E-1,3.344893456E-2,1.016674042E-1
3.196701266E0,1.105933189E-1,-4.552841187E-3,-6.225204468E-2
3.206730057E0,-1.557766199E-1,6.326174736E-2,3.562355042E-2
3.216701029E0,-2.027137280E-1,1.778537035E-1,5.467605591E-2
3.226706977E0,5.063432455E-2,-2.571940422E-3,2.588653564E-2
3.236689720E0,6.908166409E-2,-1.669211388E-1,6.895256042E-2
3.246682284E0,-3.143388033E-2,-1.568003893E-1,-8.112239838E-2
3.256710355E0,1.132794023E-1,-5.444633961E-2,-1.526136398E-1
3.266724428E0,1.785227656E-1,-3.767311573E-2,-1.487283707E-1
3.276730234E0,-9.316688776E-2,-9.094119072E-3,1.645030975E-1
3.286697637E0,-2.360268831E-1,1.113668680E-1,1.265335083E-1
3.296684993E0,-4.100078344E-1,2.350126505E-1,3.635854721E-1
3.306704574E0,-2.361968160E-1,2.349478006E-1,2.683305740E-1
3.316688442E0,-1.522367597E-1,6.394386292E-2,5.343494415E-1
3.326676376E0,1.021368504E-1,-1.753985882E-2,3.387908936E-1
3.336698612E0,3.981792927E-1,-5.542707443E-2,2.442302704E-1
3.346684172E0,2.791266441E-1,-1.968181133E-1,4.013805389E-1
3.356699587E0,1.324092150E-1,-3.010531664E-1,3.669528961E-1
3.366687544E0,3.823151588E-1,-1.600110531E-1,7.286148071E-1
3.376674715E0,4.090685844E-1,-3.832364082E-2,1.385560036E0
3.386694532E0,1.729428768E-1,1.523840427E-1,1.011547089E0
3.396703959E0,1.619119644E-1,4.327523708E-2,1.256275177E-2
3.406711288E0,1.558706760E-1,-2.787421942E-1,-2.361440659E-1
3.416722626E0,1.409590244E-1,-3.932011127E-1,-2.870731354E-1
3.426717160E0,3.856098652E-1,-3.538393974E-1,2.866935730E-1
3.436693485E0,7.063653469E-1,-9.920263290E-2,9.357891083E-1
3.446706609E0,5.539488792E-1,1.016336679E-1,3.617143631E-1
3.456714728E0,2.610790730E-1,-4.758834839E-3,-2.038574219E-1
3.466700038E0,1.257803440E-1,-2.222939730E-1,-5.071763992E-1
3.476710789E0,-9.044504166E-2,-5.018047690E-1,-4.537973404E-1
3.486690857E0,1.624326706E-1,-3.678742647E-1,-3.635072708E-1
3.496750622E0,3.906803131E-1,-1.372258663E-1,-2.199935913E-1
3.506740081E0,4.373204708E-1,-1.439130306E-2,-1.389884949E-2
3.516739580E0,2.642695904E-1,5.343723297E-2,-1.564979553E-1
3.526709945E0,1.516985893E-1,9.974932671E-2,-5.295581818E-1
3.536692896E0,9.822463989E-2,4.001235962E-2,-6.195354462E-1
3.546718680E0,4.257309437E-1,-9.674823284E-2,7.260990143E-2
3.556695687E0,1.707754135E-1,5.501270294E-3,5.295753479E-2
3.566682498E0,-3.022646904E-1,1.727776527E-1,-1.719408035E-1
3.576686038E0,-5.186188221E-1,2.593690157E-1,-2.629280090E-1
3.586671962E0,-3.334741592E-1,1.375299692E-1,-1.085376740E-1
3.596683905E0,-2.946257591E-2,-3.889572620E-2,2.482385635E-1
3.606668338E0,6.967310905E-1,-3.420346975E-1,6.782350540E-1
3.616680978E0,5.572423935E-1,-2.616817951E-1,4.983873367E-1
3.626679201E0,5.005273819E-1,-2.147195339E-1,5.529594421E-1
3.636686967E0,1.253852844E-1,3.918981552E-2,2.096586227E-1
3.646681830E0,1.758432388E-2,1.159625053E-1,-6.364698410E-1
3.656662185E0,-1.003503799E-2,7.152688503E-2,-7.170715332E-1
3.666675401E0,5.906963348E-2,-2.901724577E-1,-2.094469070E-1
3.676677163E0,-2.006919384E-1,-5.155017376E-1,-1.219234467E-1
3.686684948E0,-3.990261555E-1,-2.125610113E-1,-4.833574295E-1
3.696681879E0,-9.173254967E-1,2.254378796E-1,-6.830244064E-1
3.706680729E0,-5.950345993E-1,3.515319824E-1,-4.439783096E-1
3.716705231E0,2.194008827E-1,1.383800507E-1,-2.821969986E-1
3.726694828E0,6.641449928E-1,-1.838257313E-1,5.969905853E-2
3.736678030E0,2.696342468E-1,-2.161730528E-1,4.564752579E-1
3.746661439E0,1.310753822E-1,-1.738860607E-1,5.840587616E-1
3.756653836E0,-1.197595596E-1,-1.190428734E-1,3.984355927E-1
3.766676515E0,-5.039215088E-1,-1.783443093E-1,-1.196155548E-1
3.776675854E0,-3.998746872E-1,-3.522369862E-1,-1.584672928E-1
3.786677793E0,1.597089767E-1,-5.165374875E-1,1.751136780E-2
3.796686243E0,7.083024979E-1,-3.715907335E-1,-3.935813904E-2
3.806684238E0,8.085637093E-1,-2.892279625E-1,-3.001537323E-1
3.816690120E0,8.975977898E-1,-1.719779968E-1,-3.460936546E-1
3.826682849E0,9.500317574E-1,-8.275628090E-3,3.729152679E-2
3.836678521E0,8.557343483E-1,-3.106695414E-2,2.724905014E-1
3.846674704E0,7.489075661E-1,5.038380623E-3,1.649122238E-1
3.856666622E0,3.141217232E-1,-7.826149464E-3,-8.639717102E-2
3.866657523E0,-2.901134491E-1,-5.922740698E-2,-2.433900833E-1
3.876652474E0,-4.402565956E-1,-1.323660612E-1,-2.432608604E-1
3.886653680E0,-4.249324799E-1,-1.993580461E-1,-1.952738762E-1
3.896649245E0,-1.555218697E-1,-1.874232888E-1,2.133464813E-2
3.906646719E0,2.702798843E-1,-1.721693277E-1,1.749038696E-1
3.916660187E0,8.607835770E-1,-1.621264219E-2,1.584515572E-1
3.926883652E0,5.256552696E-1,2.948975563E-2,-1.320867538E-1
3.936776807E0,2.413983345E-1,-3.456854820E-2,1.660237312E-1
3.950931616E0,2.421889305E-1,-3.458601236E-2,1.654243469E-1
3.959959886E0,8.596324921E-2,-1.207073927E-1,1.051120758E-1
3.976675771E0,1.642880440E-1,-8.811551332E-2,6.571626663E-2
3.986709425E0,3.572130203E-1,-1.329017282E-1,-5.028152466E-2
3.996668194E0,4.576616287E-1,-1.122335792E-1,3.112597466E-1
4.006816617E0,2.794475555E-1,2.504003048E-2,5.314216614E-1
4.016652579E0,2.337241173E-1,-1.652751267E-1,4.333548546E-1
4.026671156E0,1.416807175E-1,-2.720315456E-1,1.537289619E-1
4.036652425E0,2.019214630E-2,-1.624445915E-1,-3.562145233E-1
4.046719771E0,-9.615564346E-2,7.065850496E-2,-5.363259315E-1
4.056665579E0,1.165313721E-1,1.492975354E-1,-1.063947678E-1
4.066651194E0,2.116022110E-1,1.298919320E-1,1.172590256E-2
4.076712810E0,1.255016327E-1,2.537196875E-2,-6.855583191E-2
4.086653810E0,8.152008057E-2,5.486130714E-3,-2.778000832E-1
4.096642233E0,3.239250183E-1,-1.266817749E-1,1.171956062E-1
4.106655617E0,4.973335266E-1,-1.814017594E-1,3.812723160E-1
4.116644079E0,1.156544685E-1,-1.266157627E-1,1.567277908E-1
4.126653425E0,-2.674160004E-1,-1.364238858E-1,-2.357611656E-1
4.136678156E0,-4.586887360E-2,-9.817013144E-2,-2.105765343E-1
4.146695156E0,1.660170555E-1,-1.357513070E-1,-9.554386139E-3
4.156678156E0,3.783788681E-1,-2.640531957E-1,2.711443901E-1
4.166646271E0,4.339842796E-1,-1.841109991E-1,7.857227325E-1
4.176771809E0,2.212181091E-1,-2.228823602E-1,7.169032097E-1
4.186653809E0,3.528833389E-2,-1.596038043E-1,3.401408195E-1
4.196654540E0,-2.301335335E-1,-6.855434179E-2,-7.680177689E-2
4.206685617E0,-2.768316269E-1,1.012100577E-1,-2.461819649E-1
4.216701348E0,-1.520681381E-1,1.776255369E-1,-2.622971535E-1
4.226655348E0,-1.812682152E-1,-3.146928549E-2,-5.742239952E-1
4.236665694E0,-2.789525986E-1,-1.160412133E-1,-8.881368637E-1
4.246650656E0,-4.073715210E-2,-5.482733250E-3,-6.927556992E-1
4.256650771E0,2.368993759E-1,-7.902780175E-2,3.199491501E-1
4.266666848E0,6.518855095E-1,-4.412993789E-1,5.800361633E-1
4.276666809E0,3.637380600E-1,-2.804430127E-1,6.840062141E-1
4.286820079E0,2.384696007E-1,-7.615613937E-2,4.403243065E-1
4.297322771E0,1.356277466E-1,6.861191988E-2,1.618061066E-1
4.306658002E0,-4.936170578E-2,-7.341870666E-2,-5.610609055E-2
4.316657002E0,-2.885046005E-1,-6.231433153E-2,-4.158625603E-1
4.326651848E0,-3.985462189E-1,7.726222277E-2,-5.943517685E-1
4.336647079E0,-1.416716576E-1,1.904231310E-1,-4.776635170E-1
4.346701694E0,5.632305145E-2,1.433017254E-1,-2.724204063E-1
4.356696194E0,1.918773651E-1,5.405008793E-3,-1.252670288E-1
4.366652771E0,4.068937302E-1,-1.940408051E-1,7.009220123E-2
4.376728771E0,2.942800522E-1,-2.668440044E-1,-1.494064331E-1
4.386241367E0,9.495973587E-2,-9.435111284E-2,-3.191900253E-1
4.396652425E0,9.501266479E-2,-9.405976534E-2,-3.192954063E-1
4.406659040E0,4.839653969E-1,-2.015221119E-2,4.158878326E-2
4.416659271E0,3.392353058E-1,2.028876543E-2,2.832908630E-1
4.426666271E0,3.839683533E-2,1.840049028E-2,2.164363861E-2
4.436694579E0,-1.702308655E-1,-9.848475456E-2,-1.255440712E-1
4.446699309E0,-2.296886444E-1,-2.172642946E-2,9.135532379E-2
4.456678155E0,-1.217989922E-1,-6.563419104E-2,6.142330170E-2
4.466857425E0,4.993343353E-2,-1.482540667E-1,-2.606534958E-1
4.476659848E0,1.031675339E-1,-1.483987868E-1,-2.325758934E-1
4.486665309E0,1.141262054E-2,-1.373141110E-1,-1.479272842E-1
4.496665002E0,1.448059082E-2,-2.093476951E-1,-2.674307823E-1
4.506651348E0,2.545185089E-1,-1.466789246E-1,-2.750654221E-1
4.516679117E0,5.067443848E-1,-1.234318912E-1,-1.155076027E-1
4.527630117E0,4.955139160E-1,-1.150956452E-1,-1.515874863E-1
4.536669617E0,1.856985092E-1,-1.056464911E-1,-1.937527657E-1
4.546672425E0,-2.766418457E-2,-1.025310159E-1,-1.650652885E-1
4.556725155E0,-2.354445457E-1,-9.455823898E-2,-2.049112320E-1
4.566677809E0,-3.289194107E-1,-6.891304255E-2,-2.454805374E-1
4.576667540E0,-4.084653854E-1,5.718070269E-2,-3.204007149E-1
4.586658309E0,1.982631683E-1,-8.659315109E-2,3.920412064E-2
4.596650348E0,4.702978134E-1,-2.803898156E-1,2.463026047E-1
4.606657194E0,3.870563507E-1,-2.514318824E-1,1.183953285E-1
4.616653540E0,3.699016571E-1,-2.304734588E-1,-9.405565262E-2
4.626693540E0,4.629859924E-1,-1.794924736E-1,-4.529237747E-2
4.636682655E0,4.222164154E-1,-8.220013976E-2,2.805614471E-2
4.646684425E0,8.099746704E-2,1.491105556E-2,-3.236660957E-1
4.656679078E0,-4.316644669E-1,7.761687040E-2,-6.360502243E-1
4.666686848E0,-5.316281319E-1,7.039308548E-2,-4.103455544E-1
4.676692809E0,-4.307670593E-1,2.615559101E-2,-2.492456436E-1
4.686678963E0,-2.504816055E-1,3.882867098E-2,-1.053690910E-1
4.696662040E0,1.293792725E-1,-1.766809821E-2,1.049509048E-1
4.706681386E0,3.798570633E-1,-1.391656101E-1,2.621898651E-1
4.716680617E0,2.210159302E-1,-2.951791883E-1,-4.186983109E-1
4.726688694E0,-2.848510742E-1,-2.226162851E-1,-6.805272102E-1
4.736744848E0,-7.941913605E-2,-1.256793141E-1,-6.995978355E-1
4.746706078E0,-2.440576553E-1,-2.835682631E-1,-7.710165977E-1
4.756680386E0,-2.303304672E-1,-2.253184617E-1,-4.783799648E-1
4.766644848E0,9.436130524E-2,-1.533543169E-1,-4.193639755E-2
4.776701848E0,2.147817612E-1,-1.796888709E-1,1.332483292E-1
4.786649809E0,-2.599506378E-1,-1.919716448E-1,-1.352188587E-1
4.796650040E0,-6.215019226E-1,-1.241140366E-1,-2.897398472E-1
4.806650463E0,-5.543174744E-1,-1.289399862E-1,-3.201050758E-1
4.816755424E0,-9.684371948E-2,-1.099444330E-1,1.184053421E-1
4.826705463E0,4.455375671E-1,4.916337132E-2,2.886948586E-1
4.836753040E0,6.773777008E-1,8.212703466E-2,3.169977665E-1
4.846695271E0,5.454139709E-1,-1.566849947E-1,1.536893845E-2
4.856752424E0,4.085779190E-1,-1.582832932E-1,-5.199878216E-1
4.866644540E0,1.140613556E-1,1.233402491E-1,-3.569352627E-1
4.876652501E0,-2.337322235E-1,1.086551249E-1,-5.466618538E-1
4.886675924E0,-2.362594604E-1,1.110696793E-2,-6.289680004E-1
4.896688540E0,-1.166391373E-1,2.450928092E-2,-3.868165016E-1
4.906676001E0,5.573101044E-1,-2.746032774E-1,-3.682422638E-2
4.916677463E0,8.940486908E-1,-1.955745667E-1,4.973697662E-2
4.926653117E0,1.084279060E0,-4.246038198E-2,3.552830219E-1
4.936675540E0,9.459953308E-1,-5.721461773E-2,6.638510227E-1
4.946686809E0,5.646257401E-1,-2.661663592E-1,2.893729210E-1
4.956677117E0,6.291103363E-1,-2.511611581E-1,1.252017021E-1
4.966642194E0,4.010610580E-1,-3.061537445E-1,-3.387141228E-2
4.976688386E0,1.011829376E-1,-2.668136954E-1,-3.081347942E-1
4.986675924E0,1.120319366E-1,-4.416312277E-2,-3.861644268E-1
4.996687617E0,1.665515900E-1,-2.410754561E-2,-3.708381653E-1
5.006687078E0,1.124744415E-1,-6.142593920E-2,-3.232007027E-1
5.016688693E0,8.953571320E-2,2.348512411E-2,-2.176012993E-1
5.026684040E0,2.786693573E-1,1.193781495E-1,-1.263706684E-1
5.036686540E0,2.365942001E-1,1.081182361E-1,-3.150053024E-1
5.046686847E0,-7.681846619E-2,1.429289579E-2,-5.507283211E-1
5.056677617E0,-1.503963470E-1,-4.824143648E-2,-2.447686195E-1
5.066682232E0,-1.523838043E-1,-1.674550474E-1,-8.621978760E-2
5.076693770E0,-3.297147751E-1,-3.717361689E-1,-3.435976505E-1
5.086676540E0,-2.972192764E-1,-2.150894403E-1,-3.479917049E-1
5.096686117E0,1.703033447E-1,-1.263189912E-1,-9.155130386E-2
5.106676809E0,6.726274490E-1,-1.965780705E-1,2.039413452E-1
5.116679886E0,6.691160202E-1,-1.379549950E-1,1.437630653E-1
5.126651463E0,5.627183914E-1,2.462893724E-3,2.132248878E-1
5.136676770E0,5.357112885E-1,-9.436923265E-2,1.525235176E-1
5.146692001E0,4.151659012E-1,-1.182499528E-1,1.592998505E-1
5.156680540E0,4.800176620E-1,-1.272029281E-1,2.984809875E-2
5.166678078E0,2.327556610E-1,-2.425405979E-1,-2.649378777E-1
5.176665924E0,-1.663923264E-1,-3.765824735E-1,-4.879939556E-1
5.186647040E0,-3.218812943E-1,-2.872977853E-1,-7.566108704E-1
5.196645847E0,-5.454988480E-1,-1.806136370E-1,-8.004291058E-1
5.206680155E0,-5.152444839E-1,-2.385406196E-1,-7.263474464E-1
5.216680809E0,-2.363224030E-1,-2.993800044E-1,-4.800941944E-1
5.226678001E0,4.011526108E-1,1.443179250E-1,2.811789513E-1
5.236685193E0,7.762327194E-1,5.665132403E-2,1.659581661E-1
5.246687578E0,7.494602203E-1,-1.098066866E-1,1.045629978E-1
5.256681193E0,3.645029068E-1,-2.053513229E-1,3.121995926E-2
5.266684116E0,-3.346920013E-2,-2.307027876E-1,-1.116058826E-1
5.276656309E0,-2.026147842E-1,-1.470596790E-1,-1.614758968E-1
5.286678809E0,-3.972959518E-1,-2.859544754E-2,-2.500483990E-1
5.296686655E0,-4.908561707E-1,2.548390627E-2,-5.244686604E-1
5.306682847E0,-6.206331253E-1,-6.985825300E-2,-7.930870056E-1
5.316677770E0,-4.109401703E-1,-1.714656949E-1,-1.078367591E0
5.326684693E0,1.366310120E-1,-5.664536357E-2,-8.434423208E-1
5.336678655E0,5.995578766E-1,-1.294026971E-1,-4.597628117E-1
5.346645809E0,1.144472122E0,-1.620436311E-1,5.420808792E-1
5.356685193E0,1.232477188E0,1.255798042E-1,8.016579151E-1
5.366678693E0,8.620538712E-1,1.331323683E-1,5.648047924E-1
5.376657809E0,1.742544174E-1,-1.291972399E-2,2.647035122E-1
5.386677655E0,-2.407093048E-1,-1.290642619E-1,1.242151260E-1
5.396653347E0,-3.299226761E-1,-9.314340353E-2,1.243762970E-1
5.406646078E0,-3.648471832E-1,-1.710721552E-1,-8.942055702E-2
5.416646809E0,-4.252214432E-1,-2.812683582E-1,-3.688097000E-1
5.426643309E0,-1.892099380E-1,-2.554702759E-1,-5.886104107E-1
5.436647886E0,1.056470871E-1,-3.160015941E-1,-5.193235874E-1
5.446650732E0,2.214555740E-1,-4.113627970E-1,-5.254676342E-1
5.456678616E0,4.286117554E-1,-4.140009880E-1,-4.986093044E-1
5.466683539E0,4.544439316E-1,-3.257269561E-1,-3.490660191E-1
5.476690693E0,3.440961838E-1,-1.641409397E-1,-2.797698975E-2
5.486646770E0,2.304363251E-1,1.235228181E-1,3.770861626E-1
5.496683116E0,-6.124496460E-2,1.666539609E-1,3.296124935E-1
5.506680001E0,-3.074350357E-1,-9.952506423E-2,8.844518661E-2
5.516682732E0,-6.968212128E-2,-4.139630795E-1,1.218979359E-1
5.526687347E0,2.918167114E-1,-3.860285282E-1,2.244863510E-1
5.536688424E0,8.814239502E-2,-1.830249727E-1,5.886030197E-2
5.546683078E0,-9.138488770E-2,1.333129406E-2,-1.041069031E-1
5.556678693E0,2.989196777E-2,2.281852961E-1,-5.497462749E-1
5.566679039E0,6.342029572E-2,1.059296727E-1,-7.834341526E-1
5.576687347E0,1.471872330E-1,-2.216773033E-1,-7.369155884E-1
5.586675924E0,1.544237137E-1,-6.354809403E-1,-6.190911531E-1
5.596654155E0,7.200241089E-2,-7.954292297E-1,-4.780079126E-1
5.606649808E0,-6.858444214E-2,-5.603431463E-1,-2.411364317E-1
5.616649924E0,-2.340517044E-1,-2.835708559E-1,-1.340603828E-2
5.626643924E0,-3.560600281E-1,-3.767848015E-3,2.384971380E-1
5.636646732E0,-2.950124741E-1,1.770464778E-1,1.528230906E-1
5.646654193E0,-4.260921478E-2,-1.690375805E-2,2.568284273E-1
5.656646808E0,1.595287323E-1,-2.643862665E-1,5.977233648E-1
5.666649539E0,2.035398483E-1,-2.055436969E-1,8.448078632E-1
5.676691116E0,-1.008892059E-1,-7.324278355E-3,1.132166982E0
5.686675885E0,-4.602518082E-1,3.855140209E-1,1.416287303E0
5.696682270E0,-6.768798828E-1,7.614012361E-1,1.387771964E0
5.706675808E0,-1.797602177E0,-3.028258979E-1,2.108542919E0
5.716686155E0,-1.980065823E0,-1.149416685E0,1.074928641E0
5.726691501E0,-7.598819733E-1,-1.492445469E0,-1.323790550E-1
5.736679039E0,3.208427429E-1,-1.466212869E0,-6.063520908E-1
5.746682847E0,1.015022278E0,-1.138940692E0,-7.834464312E-1
5.756678924E0,1.352231979E0,-7.699199915E-1,-9.526795149E-1
5.766648347E0,1.085535049E0,-8.288319111E-1,-1.475771666E0
5.776687731E0,4.306640625E-1,-1.377554297E0,-1.371447325E0
5.786676308E0,-5.249052048E-1,-1.759556413E0,-1.141048074E0
5.796641193E0,-7.176122665E-1,-1.428980350E0,-1.028502584E0
5.806644654E0,-5.053997040E-2,-6.360288262E-1,-4.192267656E-1
5.816679962E0,8.075733185E-1,1.033736318E-1,3.925807476E-1
5.826684347E0,1.028232574E0,4.905848801E-1,8.809744120E-1
5.836676808E0,4.165439606E-1,7.118439078E-1,2.230829716E0
5.846646885E0,-2.034826279E-1,9.792504311E-1,1.697102070E0
5.856641731E0,-3.321428299E-1,9.458317757E-1,-3.825560808E-1
5.866878731E0,-6.948776245E-1,8.734545708E-1,-8.957482576E-1
5.876738616E0,-6.387681961E-1,6.934956908E-1,-9.341922998E-1
5.886680154E0,-3.745307922E-1,2.620659471E-1,-9.356033206E-1
5.896677770E0,3.223133087E-1,-2.234558165E-1,-4.812806845E-1
5.906675885E0,6.871471405E-1,-2.804479897E-1,-7.444238663E-2
5.916645693E0,7.476902008E-1,-4.995469749E-2,-3.910982609E-2
5.926646501E0,4.373664856E-1,1.132562608E-1,-9.150338173E-2
5.936643001E0,2.301216125E-1,2.780689597E-1,-2.199835777E-1
5.946645039E0,1.782894135E-1,4.245634079E-1,-5.243097544E-1
5.956638154E0,2.384557724E-1,5.916000605E-1,-8.987883329E-1
5.966643654E0,4.594182968E-1,6.600947380E-1,-1.135814905E0
5.976678924E0,5.937509537E-1,6.577847004E-1,-1.184970856E0
5.986713500E0,5.098934174E-1,5.713380575E-1,-1.176799297E0
5.996721962E0,1.435527802E-1,4.305167198E-1,-1.133341789E0
6.006678500E0,-3.339538574E-1,2.648038268E-1,-1.262530446E0
6.016671500E0,-7.233438492E-1,-1.023786783E0,-5.900010109E0
6.026677885E0,-3.363275528E-1,-5.583420396E-1,-8.993436098E-1
6.036664885E0,-4.828491211E-1,-9.491429925E-1,2.472658634E0
6.046667000E0,4.701585770E-1,-8.441189528E-1,6.053396463E-1
6.056663000E0,1.021550179E0,-7.435395718E-1,9.101935625E-1
6.066713116E0,3.852424622E-1,-4.993779063E-1,4.283610582E-1
6.076709847E0,-5.482330322E-1,3.836703300E-2,-5.844593048E-3
6.086672539E0,-9.029474258E-1,3.665957451E-1,-1.781401634E-1
6.096670423E0,-4.182014465E-1,9.069472551E-1,-3.516010046E-1
6.106730731E0,-1.273345947E-2,1.125253797E0,-5.496727228E-1
6.116671539E0,5.647277832E-2,7.447222471E-1,-4.296422601E-1
6.126661885E0,-1.226005554E-1,1.971873045E-1,-7.850381136E-1
6.136663500E0,-3.982667923E-1,-1.373639107E-1,-9.158136845E-1
6.146694693E0,-4.576101303E-1,-2.655725479E-1,-4.143710732E-1
6.156647731E0,-4.038686752E-1,-8.614218235E-2,-2.179974318E-1
6.166647808E0,-7.551298141E-1,1.158885956E-1,-1.664280295E-1
6.176641962E0,-1.050640106E0,9.706258774E-3,-1.793354154E-1
6.186678231E0,-9.031867981E-1,-1.732153893E-1,-3.015378714E-1
6.196660885E0,-4.745445251E-1,-3.580539227E-1,-3.479594588E-1
6.206649500E0,-3.033466339E-1,-7.235212326E-1,-2.397410870E-1
6.216650770E0,-1.470890045E-1,-8.876203299E-1,-6.476414800E-1
6.226657308E0,-2.582721710E-1,-1.189211488E0,-6.652227640E-1
6.236688193E0,-2.956562042E-1,-1.218001246E0,-2.958522439E-1
6.246660616E0,2.694234848E-1,-7.484805584E-1,-5.309700966E-3
6.256645346E0,4.786262512E-1,-3.753626347E-1,1.172819138E-1
6.266671308E0,7.042264938E-1,-2.682397366E-1,4.063619375E-1
6.276697770E0,1.155782700E0,-9.608960152E-2,5.109655857E-2
6.286648846E0,9.954376221E-1,4.798436165E-2,-4.983271360E-1
6.296708500E0,1.371955872E-1,-4.489207268E-1,-4.490537047E-1
6.306683231E0,-4.158639908E-1,-7.244319916E-1,-9.617030621E-2
6.316975000E0,-7.607679367E-1,-5.224485397E-1,-7.234096527E-3
6.326764769E0,-6.396799088E-1,-6.336665154E-2,-3.370583057E-2
6.336693885E0,1.529226303E-1,2.029531002E-1,2.182657719E-1
6.346693616E0,7.403345108E-1,3.202695847E-1,3.533434868E-1
6.356693846E0,1.048567772E0,1.168639660E-1,5.140935183E-1
6.366672269E0,6.317300797E-1,-1.341874599E-1,4.284943342E-1
6.376694039E0,2.353296280E-1,-2.733614445E-1,-1.636363268E-1
6.386684308E0,-1.605501175E-1,-3.289172649E-1,-3.805552721E-1
6.396656616E0,-4.765806198E-1,-1.774573326E-1,-1.610580683E-1
6.406642346E0,-3.682670593E-1,6.954455376E-2,-3.575754166E-2
6.416666231E0,-3.737602234E-1,-1.042985916E-2,1.451313496E-2
6.426652231E0,3.080463409E-2,-1.976499557E-1,1.514780521E-2
6.436690923E0,3.213367462E-1,-3.343582153E-1,-6.754791737E-2
6.446652808E0,7.716464996E-2,-4.558205605E-1,-3.693592548E-2
6.456643077E0,-1.585102081E-2,-6.960878372E-1,1.148048639E-1
6.466649192E0,1.480855942E-1,-6.923465729E-1,1.593651772E-1
6.476659231E0,-1.367340088E-1,-4.155554771E-1,-5.062152743E-1
6.486648116E0,-5.144248009E-1,-2.554297447E-1,-4.911153316E-1
6.496671846E0,-4.121484756E-1,-3.318824768E-1,3.992521763E-2
6.506691269E0,1.431980133E-1,-3.936223984E-1,1.972112656E-1
6.516655462E0,4.659185410E-1,-4.933528900E-1,-2.246320248E-2
6.526684692E0,4.759283066E-1,-8.435621262E-1,-1.788946986E-1
6.536679462E0,5.318832397E-1,-1.038177490E0,-2.372463495E-1
6.546649231E0,5.045299530E-1,-9.344916344E-1,-1.202063262E-1
6.556690885E0,3.582229614E-1,-4.868421555E-1,7.061374187E-2
6.566667962E0,1.735453606E-1,2.199864388E-1,1.547755599E-1
6.576645577E0,-2.736053467E-1,2.969670296E-1,-5.763322115E-4
6.586642346E0,-4.014406204E-1,1.306738853E-1,-2.456353903E-1
6.596657039E0,5.332231522E-2,-7.940244675E-2,-4.224024117E-1
6.606645692E0,3.315043449E-1,-1.110086441E-1,-3.149994612E-1
6.616653769E0,2.419290543E-1,1.754760742E-3,4.099076986E-2
6.626670115E0,7.333898544E-2,2.159633636E-1,2.244926393E-1
6.636705077E0,-6.011819839E-2,1.617765427E-2,-2.410742640E-2
6.646768423E0,-5.781559944E-1,-4.164752960E-1,-4.504758120E-1
6.656649231E0,-7.343530655E-1,-6.412744522E-1,-5.466004610E-1
6.666703615E0,-6.290178299E-1,-5.380120277E-1,-6.274802089E-1
6.676669615E0,-3.224449158E-1,-3.096785545E-1,-7.383178473E-1
6.686701308E0,-3.343400955E-1,-3.148989677E-1,-7.173001766E-1
6.696725654E0,-4.163670540E-1,-4.027743340E-1,-4.880214334E-1
6.706704231E0,1.730918884E-4,-3.082208633E-1,-2.492073774E-1
6.716681846E0,2.068109512E-1,-7.292890549E-2,-3.523784876E-2
6.726683538E0,1.883392334E-1,2.351274490E-1,-1.094148755E-1
6.736653846E0,9.844875336E-2,5.314674377E-1,-2.905231714E-1
6.746649346E0,-2.866249084E-1,4.681200981E-1,-2.930448055E-1
6.756661692E0,-2.210726738E-1,9.287118912E-2,-5.399901271E-1
6.766686846E0,-3.117794991E-1,-4.249382019E-1,-5.107294917E-1
6.776669577E0,-4.659094810E-1,-6.456699371E-1,-4.834843278E-1
6.786690423E0,-1.080367565E0,-2.806749344E-1,-3.472627401E-1
6.796661231E0,-1.160620689E0,3.512945175E-1,-1.031154990E-1
6.806706538E0,-8.227143288E-1,5.547337532E-1,1.179623604E-1
6.817525231E0,3.794622421E-2,3.225417137E-1,1.380120516E-1
6.826669308E0,6.005506516E-1,1.982431412E-1,1.229745746E-1
6.836683577E0,2.481360435E-1,-6.108617783E-2,-1.313602924E-2
6.847257461E0,3.343892097E-1,-3.968505859E-1,-1.004910469E-1
6.856680154E0,4.489727020E-1,-2.928676605E-1,-1.919564009E-1
6.866647615E0,-3.202404976E-1,3.721237183E-2,3.145983815E-1
6.876653384E0,-2.243776321E-1,3.699941635E-1,2.053325176E-1
6.886651000E0,1.697206497E-1,9.723854065E-2,6.386017799E-2
6.896662884E0,-7.689476013E-2,-1.363115311E-1,1.735912561E-1
6.906682461E0,-1.348443031E-1,-2.517414093E-2,1.432564259E-1
6.916687769E0,2.218098640E-1,1.189422607E-2,4.843126535E-1
6.926725808E0,5.072293282E-1,-1.049423218E-1,1.897884607E-1
6.936941115E0,-1.510729790E-1,-2.726993561E-1,-6.756640673E-1
6.948289923E0,-4.192314148E-1,-6.653003693E-1,-7.407767773E-1
6.956683154E0,-3.625817299E-1,-7.367973328E-1,-4.799380302E-1
6.966654731E0,-2.081284523E-1,-3.274946213E-1,-3.287976980E-1
6.976674500E0,-9.232263565E-1,-4.221820831E-2,-2.284884453E-3
6.986699346E0,-6.189813614E-1,3.825635910E-1,7.025895119E-1
6.996655654E0,6.046237946E-1,3.031940460E-1,3.788672686E-1
7.006697654E0,5.263178349E-1,-1.377449036E-1,-6.256792545E-1
7.016682615E0,-1.278510094E-1,-1.722211838E-1,-7.759195566E-1
7.026657731E0,-3.844654560E-1,1.096687317E-1,-2.069921494E-1
7.036645269E0,-6.389944553E-1,-2.926254272E-2,-2.685638666E-1
7.046697038E0,-1.047345161E0,-5.008955002E-1,-5.927071571E-1
7.056649115E0,-2.851068974E-1,-9.413461685E-1,-9.095587730E-1
7.066651615E0,2.531173229E-1,-1.081119537E0,-6.598567963E-1
7.076644000E0,2.613244057E-1,-8.491125107E-1,-5.458774567E-1
7.086644769E0,3.370301723E-1,-1.350059509E-1,-1.951379776E-1
7.096678307E0,-9.639024734E-3,-2.224159241E-2,3.944993019E-2
7.106645269E0,-8.341140747E-1,1.120138168E-1,-1.099510193E-1
7.116678000E0,-4.536538124E-1,3.640623093E-1,-1.891367435E-1
7.126677807E0,-5.296573639E-1,3.466339111E-1,4.134321213E-2
7.136676692E0,-4.199566841E-1,1.397247314E-1,7.530856133E-2
7.146682923E0,1.142442226E-1,-3.819770813E-1,-3.397240639E-1
7.156676038E0,-1.506447792E-1,-7.588777542E-1,-9.786067009E-1
7.166653577E0,-4.971902370E-1,-7.053327560E-1,-1.143481493E0
7.176650000E0,-5.461676121E-1,-9.932851791E-1,-6.429517269E-1
7.186643577E0,-3.523230553E-1,-7.692012787E-1,-3.933856487E-1
7.196662307E0,1.015388966E-1,-4.970922470E-1,-1.095149517E-1
7.206717153E0,5.888943672E-1,-2.751522064E-1,1.570487022E-1
7.216747730E0,4.806408882E-1,5.067825317E-3,1.001660824E-1
7.226753653E0,3.027460575E-1,3.093528748E-1,2.251162529E-1
7.236663807E0,5.516471863E-1,7.100563049E-1,7.145717144E-1
7.246690115E0,6.397778988E-1,9.515457153E-1,8.129553795E-1
7.256672577E0,5.480142832E-1,8.463001251E-1,5.682961941E-1
7.266667077E0,1.938611269E-1,6.302270889E-1,3.756999969E-2
7.276671269E0,-6.466135979E-1,7.179164886E-2,-6.978015900E-1
7.286683307E0,-1.845408440E0,-5.237274170E-1,-5.972194672E-1
7.296748000E0,-1.732644200E0,-5.768995285E-1,-3.442242146E-1
7.306684192E0,-1.050030708E0,-4.110622406E-1,-4.827384949E-1
7.316667346E0,-7.558087111E-1,-1.461906433E-1,-3.006289005E-1
7.326672538E0,-7.183756828E-1,3.314704895E-1,3.224246502E-1
7.338849961E0,-2.408379316E-1,7.864675522E-1,6.292078495E-1
7.356660115E0,7.170467377E-1,7.725038528E-1,4.519898891E-1
7.366678000E0,2.673017979E-2,2.841205597E-1,1.372416019E-1
7.376667115E0,-2.000582218E-1,-8.885383606E-2,-2.430541515E-1
7.386691269E0,-4.412389994E-1,-6.143035889E-1,-5.770025253E-1
7.396737538E0,-9.407499433E-1,-8.222732544E-1,-3.379554749E-1
7.406667961E0,-7.523761988E-1,-4.399662018E-1,-4.347841740E-1
7.416682346E0,-5.008438826E-1,-3.285512924E-1,-4.051561356E-1
7.426755115E0,-9.307751656E-1,-9.129905701E-2,-1.015174389E-1
7.436660999E0,-9.471145272E-1,2.219123840E-1,2.544746399E-1
7.446732999E0,-2.410720587E-1,2.782115936E-1,3.630118370E-1
7.456716653E0,5.425882339E-2,2.120485306E-1,3.889701366E-1
7.466734153E0,4.458245039E-1,4.693517685E-1,1.706178188E-1
7.476751692E0,5.758756399E-1,4.262304306E-1,-5.927801132E-3
7.486721923E0,4.346276522E-1,-4.582691193E-1,-6.623620987E-1
7.496736807E0,-8.973981142E-1,-6.435565948E-1,-4.531149864E-1
7.506996269E0,-4.957657456E-1,-1.168823242E-1,-7.775425911E-2
7.516723038E0,-2.390747070E-1,2.386064529E-1,7.060313225E-2
7.526662115E0,-6.815361977E-1,5.488204956E-1,3.442530632E-1
7.536666846E0,-7.628852725E-1,9.653501511E-1,4.349656105E-1
7.546697461E0,-3.580515385E-1,9.790983200E-1,5.802567005E-1
7.556709115E0,1.685129404E-1,7.389307022E-1,3.986616135E-1
7.566665730E0,4.737720490E-1,2.167625427E-1,-1.673893929E-1
7.576667269E0,-1.576145887E-1,-1.689357758E-1,-3.569920063E-1
7.586686769E0,-1.000537872E-1,-6.973495483E-1,-8.436825275E-1
7.596732961E0,-7.873741388E-1,-1.409181595E0,-1.136343241E0
7.606659961E0,-1.421003938E0,-1.614327431E0,-1.019158840E0
7.616678153E0,-1.067928553E0,-1.235830307E0,-3.997085094E-1
7.626703269E0,-4.091486335E-1,-5.641803741E-1,2.013089657E-1
7.636677192E0,8.958089352E-2,6.788349152E-2,6.077578068E-1
7.646678269E0,-2.594058514E-1,9.376745224E-1,1.361234665E0
7.656713692E0,3.477638960E-1,1.233732224E0,1.437742114E0
7.666795115E0,1.365957260E0,8.343906403E-1,6.676222086E-1
7.676672692E0,1.396667004E0,2.249984741E-1,7.190549374E-1
7.686665384E0,1.568166375E0,1.735687256E-3,-4.421300888E-1
7.696738192E0,9.240271449E-1,1.403532028E-1,-8.091413975E-1
7.706733461E0,1.524317265E-2,-4.164953232E-1,-8.560171127E-1
7.716685999E0,-6.846966147E-1,-7.837915421E-1,-1.412833929E0
7.726714038E0,-1.526851296E0,-1.258398056E0,-1.000439644E0
7.736709115E0,-2.068667889E0,-6.289024353E-1,-4.656085968E-1
7.746768615E0,-1.009748101E0,3.021297455E-1,-3.875992298E-1
7.756725922E0,-5.344614387E-1,2.709770203E-1,2.099462748E-1
7.766668922E0,-4.264045954E-1,3.009519577E-1,2.984405756E-1
7.776659922E0,1.884870529E-1,1.838455200E-1,8.362400532E-2
7.786679653E0,4.381033182E-1,-8.446693420E-2,1.672433615E-1
7.799381576E0,7.553399801E-1,3.021621704E-2,-1.642928123E-1
7.816686153E0,1.793470383E-1,-3.663806915E-1,-3.276548386E-1
7.826682384E0,3.745675087E-2,2.384185791E-5,-2.560387850E-1
7.836644115E0,-1.049193144E-1,1.562757492E-1,-4.355096817E-2
7.846654999E0,-3.334221244E-1,5.972900391E-1,1.384966373E-1
7.856651422E0,6.087565422E-2,5.364904404E-1,5.568944216E-1
7.866796345E0,-1.882259846E-1,3.702535629E-1,9.359411597E-1
7.876695115E0,-6.239390373E-2,8.823547363E-1,1.151705742E0
7.886649922E0,9.641834497E-1,1.276595116E0,1.240280628E0
7.896761922E0,1.767524600E0,1.211224556E0,1.282037020E0
7.906644691E0,1.666846871E0,7.780609131E-1,1.266534448E0
7.916649653E0,1.248755932E0,3.115711212E-1,1.102066398E0
7.926678191E0,9.017360210E-1,-1.776046753E-1,4.864683151E-1
7.936686191E0,-3.584978580E-1,-6.419925690E-1,-4.005453587E-1
7.946695307E0,-2.055241108E0,-9.426593781E-1,-7.473772764E-1
7.956640576E0,-2.191117764E0,-6.068477631E-1,-3.561748862E-1
7.966672461E0,-1.901643038E0,-2.264461517E-1,2.089671791E-1
7.976704499E0,-1.037805796E0,2.211570740E-2,3.340718150E-2
7.986731461E0,1.590244770E-1,8.175373077E-2,-1.245277226E-1
7.996722999E0,1.159685850E0,1.875019073E-2,6.683236361E-1
8.006656384E0,1.593688965E0,-1.680078506E-1,9.648802280E-1
8.016675422E0,1.332317591E0,-2.685432434E-1,6.881330609E-1
8.026711538E0,-2.979316711E-1,-3.069849014E-1,-1.262742281E-2
8.036694807E0,-2.347563028E0,-2.999696732E-1,-1.846785545E-1
8.046721922E0,-2.613341093E0,-1.672744751E-3,-1.179974675E-1
8.056660961E0,-1.004619479E0,1.518840790E-1,3.424596786E-1
8.066733961E0,1.943969727E-1,1.634988785E-1,4.723834991E-1
8.076685576E0,5.183284283E-1,1.538448334E-1,1.227863073E0
8.086723268E0,1.069003344E0,-2.405929565E-2,1.077671051E-1
8.096682461E0,1.749536991E-1,-3.113241196E-1,-9.238457680E-2
8.106672384E0,2.690291405E-2,-2.087774277E-1,3.988727331E-1
8.116734384E0,-1.624379158E-1,1.878767014E-1,1.852145195E-1
8.126723037E0,-7.791984081E-1,7.636070251E-2,-2.918138504E-1
8.136709345E0,-1.100959897E0,-4.745330811E-1,-2.564220428E-1
8.146686384E0,-1.674891472E0,7.296266556E-1,3.473954201E-1
8.156667884E0,-3.085544109E-1,-8.480262756E-2,-2.562282085E-1
8.166721537E0,8.135998249E-1,-1.003811836E0,-7.583899498E-1
8.176655960E0,1.539767981E0,-1.782589912E0,-1.135571718E0
8.186719730E0,8.049955368E-1,-1.493291855E0,-6.802835464E-1
8.196668460E0,6.737928391E-1,-3.142061234E-1,-2.854442596E-1
8.206662999E0,-1.183001995E-1,2.225990295E-1,-3.520250320E-2
8.216667730E0,-1.051469207E0,-2.712888718E-1,-1.475298405E-1
8.226714230E0,-8.699991703E-1,-2.344827652E-1,-1.890301704E-1
8.236733037E0,-3.363637924E-1,2.543725967E-1,1.320314407E-2
8.246857153E0,-5.135555267E-1,7.610225677E-2,-3.214573860E-2
8.256663114E0,-2.750289440E-1,1.908016205E-2,1.565518379E-1
8.266719653E0,1.849789619E-1,-4.276170731E-1,-5.083391666E-1
8.276670114E0,-8.412574530E-1,-1.023708344E0,-1.187868118E0
8.286719730E0,-1.128153324E0,-9.930286407E-1,-7.294223309E-1
8.296670037E0,-2.540812492E-1,-7.091941833E-1,-3.207492828E-2
8.306726845E0,2.426097393E-1,-6.322736740E-1,6.159491539E-1
8.316740153E0,8.700618744E-1,-1.420640945E-1,1.230303288E0
8.326688345E0,1.247586727E0,4.139108658E-1,1.709968567E0
8.336666345E0,7.735018730E-1,2.982950211E-1,2.300766945E0
8.346724960E0,5.214381218E-1,7.544040680E-2,1.387061596E0
8.356680960E0,-5.625414848E-1,-1.056385040E-2,-2.120943069E-1
8.366670999E0,-1.285985351E0,-2.048282623E-1,-9.412136078E-1
8.376655999E0,-1.046883821E0,-4.713621140E-1,-9.277853966E-1
8.386717114E0,-8.993167281E-1,-5.240755081E-1,-7.646999359E-1
8.396682768E0,-8.224149942E-1,-3.286724091E-1,-1.664962769E-1
8.406724730E0,7.777178288E-2,-1.737689972E-1,3.525280952E-1
8.416726191E0,4.140907526E-1,2.719879150E-2,4.118394852E-1
8.426722076E0,4.247735739E-1,2.664518356E-1,7.261085510E-1
8.436681422E0,1.505496860E0,2.091112137E-1,1.240407467E0
8.446719960E0,1.382431149E0,9.963035583E-3,1.020063400E0
8.456662922E0,7.153253555E-1,-6.184711456E-1,5.639386177E-1
8.466703768E0,-6.569398642E-1,-1.078086853E0,7.242350578E-1
8.476721845E0,1.072092056E-1,-8.687162399E-1,9.981374741E-1
8.486662191E0,9.872933626E-1,-6.595439911E-1,1.912870407E-1
8.496719114E0,8.948632479E-1,8.280277252E-2,-1.412944794E-1
8.506715806E0,2.478802204E-2,6.146755219E-1,2.735519409E-2
8.516735422E0,-2.854126692E-1,1.017200947E0,1.164236069E-1
8.526726922E0,-5.520792007E-1,9.634351730E-1,4.076371193E-1
8.537238499E0,-4.903743863E-1,8.771638870E-1,4.543781281E-1
8.546660883E0,2.738425732E-1,3.885235786E-1,1.123952866E-1
8.556701268E0,1.918711066E-1,-4.474663734E-1,3.158378601E-2
8.566656037E0,-3.922379017E-1,-7.419862747E-1,-4.909276962E-2
8.576643729E0,-7.241694331E-1,-9.529876709E-1,1.013231277E-1
8.586643691E0,-5.724906921E-1,-9.694547653E-1,5.631837845E-1
8.596651037E0,-2.124977112E-1,-9.137783051E-1,8.320989609E-1
8.606641960E0,-1.188458800E-1,-4.865894318E-1,1.253233910E0
8.616649345E0,-2.171922326E-1,5.415582657E-1,1.257380009E0
8.626646960E0,-5.121654272E-1,1.082547188E0,8.564801216E-1
8.636649383E0,-3.008166254E-1,7.996563911E-1,2.841601372E-1
8.646656806E0,4.781711102E-1,1.318202019E-1,6.315503120E-1
8.656648345E0,5.248579979E-1,-4.403939247E-1,1.074477196E0
8.666662999E0,-3.574053049E-1,-2.835736275E-1,9.439935684E-1
8.676693575E0,-3.201888204E-1,-1.102957726E-1,4.622206688E-1
8.686658460E0,-2.564841211E-1,2.551016808E-1,5.942144394E-1
8.696652883E0,1.029185057E-1,3.195676804E-1,7.278838158E-1
8.706691422E0,3.248082995E-1,1.437726021E-1,1.085614204E0
8.716714999E0,1.925251484E-1,-1.529974937E-1,1.200733662E0
8.726723691E0,-4.482716322E-1,-7.949147224E-1,1.337219715E0
8.736677960E0,-8.186220527E-1,-4.928035736E-1,8.963713646E-1
8.746697306E0,-8.601073027E-1,3.124365807E-1,3.104453087E-1
8.756675652E0,-3.752192259E-1,5.868353844E-1,-2.369861603E-1
8.766666075E0,1.827180088E-1,1.348528862E-1,-2.756471634E-1
8.776655422E0,3.251651525E-1,-2.713761330E-1,-2.094330788E-1
8.786720191E0,3.266495764E-1,-3.396515846E-1,-2.432746887E-1
8.796822498E0,2.920961082E-1,-4.963569641E-1,1.284542084E-1
8.806688575E0,1.415702999E-1,-1.044664383E-1,7.394695282E-1
8.816670652E0,-1.388648152E-2,2.833790779E-1,1.340568542E0
8.826664383E0,-5.161271095E-1,8.557701111E-2,1.441034317E0
8.836719691E0,-1.137524366E0,-2.933444977E-1,9.961643219E-1
8.846703268E0,-1.469102979E0,-3.375263214E-1,6.303310394E-1
8.856659229E0,-1.188175797E0,-2.379834652E-1,1.453180313E-1
8.866678768E0,-5.306882858E-1,1.225566864E-2,-2.715082169E-1
8.876707998E0,-3.091096878E-3,-1.125042439E-1,-2.656936646E-2
8.886672652E0,4.485251606E-1,1.060857773E-1,-1.417675018E-1
8.896836883E0,6.212497950E-1,5.776567459E-1,-1.024898529E0
8.906741114E0,5.833243728E-1,5.308220387E-1,-9.412784576E-1
8.916754806E0,-3.541774750E-1,-2.182457447E-1,-1.090526581E-1
8.926716806E0,-9.993987083E-1,-5.129506588E-1,5.660867691E-1
8.936671229E0,-6.745632291E-1,-9.226202965E-2,6.309890747E-1
8.946663921E0,-6.486546993E-1,-8.962631226E-2,3.570947647E-1
8.956716037E0,-8.974981308E-1,-1.180500984E-1,2.999744415E-1
8.966736960E0,-3.118324280E-1,4.666078091E-1,1.616191864E-1
8.976683652E0,-3.051817417E-2,6.968950033E-1,-1.727962494E-2
8.986686614E0,-9.792357683E-3,5.936714411E-1,-3.282938004E-1
8.996710114E0,3.355355859E-1,5.523083210E-1,-8.067960739E-1
9.006705075E0,5.918101072E-1,1.952085495E-1,-8.043136597E-1
9.016724729E0,3.387631476E-1,-1.189882755E-1,-4.224853516E-1
9.026715383E0,1.105743051E-1,1.997745037E-1,-6.791191101E-1
9.036677498E0,2.388885021E-1,7.372812629E-1,-1.189114571E0
9.046684344E0,4.727051854E-1,7.368891835E-1,-1.192177773E0
9.056671729E0,3.714627028E-2,5.570213199E-1,-5.919685364E-1
9.066732268E0,-4.140372276E-1,4.414969087E-1,-3.945255280E-2
9.076665729E0,-8.754149079E-1,1.996033788E-1,1.011475563E0
9.086667921E0,-1.025817156E0,2.082363963E-1,1.080505371E0
9.096718383E0,-7.477269173E-1,3.778367937E-1,9.199075699E-1
9.106668267E0,-4.769850075E-1,3.723132610E-1,2.837839127E-1
9.116732306E0,3.403303921E-1,5.529135466E-1,-5.179691315E-2
9.126682844E0,6.862853765E-1,3.552051783E-1,-2.243366241E-1
9.136689114E0,8.617621660E-1,3.284282088E-1,-3.822498322E-1
9.146664344E0,9.109215140E-1,3.331276178E-1,-6.095781326E-1
9.156723921E0,9.744386673E-1,2.549740970E-1,-6.898813248E-1
9.166728114E0,1.067823768E0,4.044477642E-1,-7.874813080E-1
9.176682614E0,7.185832262E-1,7.461344004E-1,-7.123365402E-1
9.186692037E0,4.329367876E-1,9.611028433E-1,-2.441825867E-1
9.196724575E0,1.914390326E-1,9.286565781E-1,-1.837558746E-1
9.206672883E0,-4.012002647E-1,6.681418419E-1,-6.446228027E-1
9.216750421E0,4.780876637E-2,7.787903547E-1,-2.099752426E-1
9.226657190E0,2.829814553E-1,6.649330854E-1,3.071193695E-1
9.236674690E0,4.010087252E-1,3.273433745E-1,-3.404598236E-1
9.246716921E0,7.311174870E-1,3.458966911E-1,-3.187627792E-1
9.256720075E0,6.930127144E-1,4.545296133E-1,-2.956409454E-1
9.266678075E0,-5.254217982E-2,2.859075069E-1,-4.723443985E-1
9.276669921E0,-3.939098120E-1,5.112636089E-2,-1.512022018E-1
9.286668114E0,-2.427925467E-1,1.683952212E-1,-3.940782547E-1
9.296674690E0,-4.854216576E-1,7.765448093E-2,-8.361196518E-1
9.306671998E0,-9.044694304E-1,-4.889941216E-2,-5.642948151E-1
9.316728690E0,-7.080227137E-1,1.558517218E-1,2.110147476E-1
9.327089421E0,-1.321238577E-1,2.687275410E-1,2.239799500E-1
9.339337421E0,-1.165606022E0,1.298590302E-1,-1.245739937E0
9.356723190E0,-1.865659952E-1,4.798884690E-1,-5.895805359E-1
9.366752844E0,6.980261803E-1,6.704518795E-1,-8.062839508E-1
9.377012075E0,1.171601176E0,8.860456347E-1,-2.696704865E-1
9.386667690E0,1.053768873E0,8.088851571E-1,4.557695389E-1
9.396656806E0,1.040185928E0,7.969845533E-1,1.173065186E0
9.406684998E0,3.634786010E-1,1.222855747E-1,1.609265327E0
9.416681921E0,-6.355298758E-1,-2.306823134E-1,3.222084045E-2
9.426658536E0,-2.116374731E0,1.124718338E-1,-1.856907368E0
9.436727652E0,1.097981632E-1,1.040513039E0,-1.662907600E0
9.446659229E0,1.666859865E0,1.283001661E0,-1.062689781E0
9.456664075E0,1.212135553E0,8.536706567E-1,-7.804346085E-1
9.466671152E0,9.039309025E-1,6.880060434E-1,3.221902847E-1
9.476659883E0,2.464826107E0,1.094857812E0,-2.116289139E-1
9.486665306E0,1.761117935E0,1.081337333E0,1.871032715E-1
9.496666190E0,1.689241976E-1,2.543730736E-1,9.058122635E-1
9.506665036E0,-4.795073271E-1,-4.590242505E-1,1.801490784E-3
9.516684767E0,-1.406341314E0,-2.978928387E-1,-1.164958954E0
9.526713690E0,-1.401743531E0,-2.866750956E-1,-8.295869827E-1
9.536677921E0,-9.025091529E-1,-4.612144530E-1,1.239242554E-1
9.546657306E0,1.361387968E-2,-3.602617979E-1,5.325708389E-1
9.556661959E0,4.540750384E-2,-4.109067023E-1,5.750942230E-1
9.566676036E0,4.311580956E-1,-1.056461334E-1,3.113985062E-1
9.576682575E0,6.590603590E-1,1.080051959E-1,1.050190926E0
9.586695959E0,1.241759896E0,-2.976325154E-1,1.921759605E0
9.596670844E0,7.620953321E-1,-5.869805813E-3,1.671452522E0
9.606666421E0,5.137062073E-2,6.287431717E-2,3.926124573E-1
9.616742229E0,-4.026480615E-1,-3.305258453E-1,-3.599834442E-1
9.626667152E0,-1.127388477E0,-5.122001767E-1,-7.746582031E-1
9.636666498E0,-1.229690909E0,-2.567319274E-1,-1.490374565E0
9.646663229E0,-1.045487046E0,-2.446462959E-1,-1.657766342E0
9.656670075E0,-8.911127448E-1,-1.725844145E-1,-1.319960594E0
9.666733075E0,-5.772692561E-1,-2.102074027E-1,-2.966995239E-1
9.676681152E0,1.888735294E-1,2.271878719E-2,1.375729561E0
9.686758498E0,1.383592248E0,3.126268685E-1,2.499281883E0
9.696664652E0,1.989128947E0,3.642378449E-1,2.952002525E0
9.706664575E0,1.509976745E0,3.886743188E-1,2.939661026E0
9.716693844E0,4.672795534E-1,5.182589889E-1,1.243666649E0
9.726726190E0,1.820158958E-2,6.482630968E-1,-6.235733032E-1
9.736684113E0,-1.052163243E-1,3.040852547E-1,-1.733469009E0
9.746659882E0,-6.500319242E-1,-6.195642948E-1,-1.869972229E0
9.756668036E0,-8.551244736E-1,-8.529366255E-1,-1.216770172E0
9.766694998E0,-1.145327091E0,-1.015018940E0,-3.532581329E-1
9.776674229E0,-9.343288541E-1,-1.237379193E0,6.216039658E-1
9.786674652E0,-5.390033722E-1,-1.048639655E0,1.332822800E0
9.796663729E0,-2.085081935E-1,-8.226794004E-1,1.317743301E0
9.806671459E0,-2.228341103E-1,-5.479703546E-1,8.285789490E-1
9.816735267E0,-4.169250131E-1,-1.341996491E-1,2.934665680E-1
9.826672844E0,-3.743101656E-1,4.049026966E-2,6.966400146E-2
9.836682652E0,-3.656220436E-2,-1.977707446E-1,4.693059921E-1
9.846670652E0,5.684095621E-2,-3.633657694E-1,4.894790649E-1
9.856675152E0,3.390296102E-1,-4.988724291E-1,1.061734200E0
9.866668959E0,6.799281240E-1,-3.997527361E-1,9.628639221E-1
9.876670152E0,5.691593885E-2,-2.216873765E-1,3.899011612E-1
9.886696767E0,-9.453090429E-1,-2.619653344E-1,3.212022781E-1
9.896684421E0,-1.252482891E0,-7.764184475E-1,4.186897278E-1
9.906666728E0,-7.018304467E-1,-1.346249342E0,6.510572433E-1
9.916734498E0,2.223956585E-1,-1.413103461E0,5.192747116E-1
9.926714344E0,2.162604928E-1,-1.160843849E0,2.653360367E-1
9.936731728E0,-8.864998817E-2,-1.084750295E0,-2.965507507E-1
9.946717805E0,-4.015862048E-1,-1.603032827E0,-5.531806946E-1
9.956713036E0,-8.928203583E-1,-9.611871243E-1,-9.447956085E-1
9.966871305E0,-8.944741488E-1,3.205317259E-1,-8.167247772E-1
9.976684113E0,-4.269405305E-1,1.286412597E0,-3.429288864E-1
9.986678613E0,2.424902320E-1,1.575586081E0,1.953792572E-2
9.996661190E0,5.673418045E-1,1.270349503E0,1.883506775E-1
1.000666534E1,2.287557423E-1,1.237327099E0,8.281841278E-1
1.001666546E1,-5.616726875E-1,1.257840991E0,7.326192856E-1
1.002667211E1,-8.191257715E-1,9.428853393E-1,-9.652357101E-1
1.003667396E1,-1.113743186E0,4.792677164E-1,-1.714275360E0
1.004671415E1,-1.099166393E0,6.028091908E-2,-2.005176544E0
1.005666158E1,-9.729557633E-1,-3.946836591E-1,-1.585097313E0
1.006667308E1,-8.172637224E-1,-4.712778926E-1,-1.318492889E0
1.007666777E1,-7.876641750E-1,-1.945953965E-1,-1.619153976E0
1.008668157E1,-4.566082358E-2,3.823211789E-1,-5.366611481E-1
1.009668792E1,2.436097264E-1,3.650065660E-1,6.103467941E-1
1.010667957E1,5.235102177E-1,2.254498005E-1,1.605250359E0
1.011667381E1,8.487037420E-1,-1.411012411E-1,2.560827255E0
1.012671546E1,6.204093695E-1,-4.333567619E-1,2.349199295E0
1.013674273E1,-1.639866531E-1,-5.029556751E-1,1.913279533E0
1.014667500E1,-4.005327821E-1,-4.305282235E-1,1.986227036E0
1.015666811E1,-3.107490838E-1,-6.006839871E-1,1.065267563E0
1.016669538E1,-8.186880350E-1,-8.806580901E-1,-8.722171783E-1
1.017669742E1,-1.966090441E0,-7.883737087E-1,-1.202917099E0
1.018667223E1,-1.408109188E0,-1.401287317E-1,-1.372620583E0
1.019666088E1,-9.267678261E-1,1.017549634E-1,-1.573895454E0
1.020667019E1,-2.910469174E-1,6.180145741E-1,-1.347999573E0
1.021675234E1,-4.820568264E-1,1.152156234E0,-1.571080208E0
1.022674411E1,-7.346363068E-1,9.468470216E-1,-1.432888985E0
1.023672227E1,-5.178903937E-1,4.979509711E-1,-1.049663544E0
1.024673096E1,-4.646408856E-1,1.462862492E-1,-6.133775711E-1
1.025672338E1,-2.612745166E-1,5.190229416E-2,1.634693146E-2
1.026672192E1,-9.662222862E-2,1.797311306E-1,2.880210876E-1
1.027666804E1,6.052613258E-3,3.041880429E-1,1.668386459E-1
1.028672734E1,-1.549988985E-1,3.875701725E-1,1.714820862E-1
1.029666623E1,9.333437681E-2,5.444504023E-1,5.063915253E-1
1.030669865E1,1.995563507E-1,6.753516197E-1,4.916276932E-1
1.031667892E1,5.399483442E-2,3.636842668E-1,2.947206497E-1
1.032672669E1,6.331348419E-2,-2.448957860E-1,8.188915253E-2
1.033669400E1,6.990138888E-1,-5.576568842E-1,6.163597107E-3
1.034667557E1,-6.089270115E-2,-3.270761967E-1,3.666534424E-1
1.035667527E1,-8.155542016E-1,-2.337838709E-2,-3.091192245E-1
1.036673796E1,-8.306432962E-1,1.971507818E-1,-2.520723343E-1
1.037666573E1,-4.487307370E-1,3.744120598E-1,-1.092910767E-3
1.038668984E1,1.464966536E-1,7.292470336E-1,1.079416275E-1
1.039668884E1,3.238898814E-1,7.998380065E-1,3.760719299E-1
1.040667219E1,7.358878851E-1,8.310624957E-1,1.201317787E0
1.041674757E1,3.601899743E-1,5.547798276E-1,4.539890289E-1
1.042714911E1,-8.395129442E-2,6.151297092E-1,-2.637071609E-1
1.043667531E1,-1.941551417E-1,8.174594045E-1,3.611364365E-1
1.044666507E1,-7.870172858E-1,1.473176777E-1,1.496863365E0
1.045674573E1,-4.308513105E-1,-7.779226899E-1,9.865703583E-1
1.046667054E1,-4.651432335E-1,-1.163975000E0,4.622058868E-1
1.047666400E1,-4.435198009E-1,-9.314995408E-1,-1.369094849E-2
1.048666892E1,-4.771169722E-1,-7.042815089E-1,-2.197465897E-1
1.049667011E1,-2.110293508E-1,-5.784446597E-1,-4.703521729E-3
1.050668742E1,2.177368402E-1,-3.922380805E-1,2.418956757E-1
1.051667461E1,2.511218190E-1,-3.750540316E-1,7.482337952E-2
1.052667761E1,-8.058857918E-2,-4.100720882E-1,-2.690076828E-1
1.053673669E1,-2.330226004E-1,-4.311673343E-1,-6.279191971E-1
1.054671054E1,1.839914918E-2,-4.038993418E-1,-9.832067490E-1
1.055666304E1,4.307152033E-1,-3.804320097E-1,-1.122697830E0
1.056672746E1,7.456195354E-1,-4.208362997E-1,-1.081202507E0
1.057666804E1,9.084240198E-1,-4.457719028E-1,-9.510087967E-1
1.058674300E1,9.698355198E-1,-3.637750149E-1,-7.764043808E-1
1.059668411E1,9.772551656E-1,-2.468335032E-1,-3.298797607E-1
1.060667384E1,8.838101029E-1,-1.841333807E-1,5.804443359E-2
1.061674992E1,6.750498414E-1,-2.211502790E-1,1.704072952E-1
1.062668346E1,1.660527587E-1,-3.011980057E-1,3.917264938E-1
1.063667727E1,-4.061674476E-1,-4.264738858E-1,6.275310516E-1
1.064667873E1,-1.001060367E0,-6.103418469E-1,9.648208618E-1
1.065667088E1,-8.271604776E-1,-6.225829124E-1,1.526030540E0
1.066667631E1,-5.814448595E-1,-5.436483026E-1,1.073231697E0
1.067673465E1,-7.658084631E-1,-4.576309323E-1,2.054977417E-1
1.068667677E1,-7.647983432E-1,-2.018589079E-1,-1.529331207E-1
1.069667750E1,-5.039263368E-1,9.367674589E-3,-7.735157013E-2
1.070668992E1,-1.771066189E-1,6.934675574E-2,9.817504883E-2
1.071667507E1,7.053017616E-2,7.499447465E-2,2.255849838E-1
1.072666581E1,1.398893595E-1,6.572356820E-2,1.477012634E-1
1.073673396E1,-3.022123575E-1,4.879888594E-1,-1.595945358E-1
1.074670119E1,-2.127579451E-1,7.945562601E-1,-2.968740463E-1
1.075667407E1,-3.313779831E-3,8.220334649E-1,-1.819248199E-1
1.076668330E1,1.479511261E-1,6.661764383E-1,3.762454987E-1
1.077666377E1,2.285516262E-1,4.493683875E-1,9.974727631E-1
1.078673492E1,3.201365471E-3,2.476135492E-1,1.767288208E0
1.079669880E1,-2.744483948E-2,3.554799855E-1,3.201556206E0
1.080667846E1,-1.083134413E-1,6.194009185E-1,3.579220772E0
1.081667738E1,-5.844443440E-1,7.259519696E-1,3.135869980E0
1.082667257E1,-7.630609274E-1,7.179567218E-1,2.806468010E0
1.083666065E1,-5.107307434E-1,6.607232094E-1,2.292155266E0
1.084666634E1,-9.147989750E-2,5.465819240E-1,1.512170792E0
1.085667080E1,8.995079994E-2,5.313721895E-1,1.051748276E0
1.086672392E1,1.606791019E-1,7.145153880E-1,1.176138878E0
1.087668192E1,2.871819735E-1,9.064593911E-1,1.595829010E0
1.088671004E1,3.781994581E-1,9.317048192E-1,2.132751465E0
1.089667777E1,5.698318481E-1,1.041843176E0,2.550734520E0
1.090677077E1,1.043508887E0,1.383608103E0,2.717577934E0
1.091667180E1,1.681207180E0,1.814775705E0,3.088340759E0
1.092667300E1,2.330588818E0,2.263105154E0,4.035415649E0
1.093669488E1,2.933202744E0,2.509099483E0,5.442831039E0
1.094666827E1,2.805127621E0,2.417419672E0,5.941605568E0
1.095668238E1,2.232284784E0,2.118045568E0,6.092735291E0
1.096666369E1,1.763945222E0,1.939394712E0,5.173481941E0
1.097671065E1,1.269193888E0,2.015829563E0,3.921240807E0
1.098672169E1,9.927080870E-1,2.190847874E0,3.358008385E0
1.099672642E1,1.218526602E0,2.462776899E0,3.755085945E0
1.100673381E1,1.852711082E0,2.847944736E0,4.748620987E0
1.101666619E1,2.181575537E0,3.025843382E0,5.980641365E0
1.102666811E1,2.054879427E0,2.987841368E0,6.807979584E0
1.103672661E1,1.545981050E0,3.010726452E0,6.878921509E0
1.104664769E1,9.288233519E-1,2.985333920E0,6.359508514E0
1.105668173E1,6.456477642E-1,2.814579487E0,6.143016815E0
1.106670130E1,1.095242739E0,2.462243557E0,6.176547050E0
1.107664234E1,1.068783283E0,2.278616905E0,6.171683311E0
1.108665488E1,1.192039013E0,2.100203991E0,6.225998878E0
1.109668031E1,1.374950409E0,1.770310640E0,6.113405228E0
1.110669411E1,1.341309547E0,1.328781366E0,5.948678017E0
1.111669530E1,1.341494322E0,9.266486168E-1,5.778223038E0
1.112664350E1,1.227774858E0,4.753427505E-1,5.550065994E0
1.113668354E1,1.285414457E0,4.489612579E-2,5.457210541E0
1.114667415E1,1.469793558E0,-3.295147419E-1,5.233136177E0
1.115663973E1,1.419428110E0,-6.960153580E-1,4.760757446E0
1.116668250E1,1.276878357E0,-1.020625353E0,4.290014267E0
1.117668019E1,1.041205168E0,-1.479952335E0,3.778004646E0
1.118666457E1,7.415099144E-1,-1.983063459E0,3.294336319E0
1.119666907E1,5.557327271E-1,-2.248477936E0,2.809474945E0
1.120666611E1,5.318675041E-1,-2.134801865E0,2.218400002E0
1.121671023E1,7.534289360E-1,-1.821686745E0,1.283958435E0
1.122666734E1,6.861755848E-1,-1.733201981E0,4.861373901E-1
1.123672592E1,3.533329964E-1,-1.847605228E0,2.175922394E-1
1.124671584E1,-4.301810265E-2,-2.031607628E0,5.034708977E-1
1.125672392E1,-2.029690742E-1,-2.168748617E0,8.910455704E-1
1.126671430E1,-1.988389492E-1,-2.382355452E0,1.296642780E0
1.127673096E1,2.720749378E-1,-2.744827986E0,8.576474190E-1
1.128672515E1,-9.979248047E-3,-2.485266209E0,1.108211994E0
1.129666669E1,-4.644380808E-1,-1.839106560E0,1.507430553E0
1.130667596E1,-5.895797014E-1,-1.419474602E0,1.669451714E0
1.131672646E1,-1.870200634E-1,-1.312468052E0,1.827204227E0
1.132666484E1,4.024906158E-1,-1.264125824E0,1.672229290E0
1.133667738E1,7.134552002E-1,-1.165500641E0,1.546802521E0
1.134667080E1,8.546688557E-1,-9.477057457E-1,9.834041595E-1
1.135668069E1,6.680132151E-1,-9.251575470E-1,4.363250732E-2
1.136666523E1,5.750870705E-2,-1.354774475E0,-9.563527107E-1
1.137672815E1,-6.838214993E-1,-1.909829140E0,-2.173795223E0
1.138669277E1,-1.306301951E0,-1.769389153E0,-2.168823719E0
1.139668642E1,-1.096216798E0,-1.464129448E0,-1.581419945E0
1.140666377E1,-7.323972583E-1,-1.396817207E0,-7.139072418E-1
1.141672727E1,-6.757384539E-1,-1.371278286E0,2.025732994E-1
1.142667992E1,-7.102576494E-1,-1.112521648E0,1.015354633E0
1.143668838E1,-2.441995144E-1,-5.482645035E-1,1.652529240E0
1.144667142E1,6.044818163E-1,-1.793751717E-1,1.753548145E0
1.145667169E1,1.261598468E0,-1.762504578E-1,1.173162460E0
1.146672842E1,1.345384002E0,-3.330545425E-1,3.156051636E-1
1.147667488E1,7.566153407E-1,-7.494239807E-1,-3.808207512E-1
1.148673238E1,1.842051744E-1,-1.354108810E0,-1.007972717E0
1.149666823E1,-3.034005165E-1,-2.075577259E0,-1.136126518E0
1.150668054E1,-8.133338690E-1,-2.959354162E0,-6.479949951E-1
1.151667561E1,-1.504028320E0,-3.575461626E0,-3.970751762E-1
1.152666804E1,-1.510092258E0,-3.436758041E0,-4.325017929E-1
1.153674084E1,-8.806709051E-1,-3.079074860E0,-8.098425865E-1
1.154666869E1,-4.954714179E-1,-2.879936218E0,-1.503651619E0
1.155666607E1,-9.872794151E-3,-2.302213669E0,-2.119507790E0
1.156668130E1,9.553328753E-1,-1.633541584E0,-2.956957817E0
1.157665580E1,1.420706749E0,-1.822949886E0,-3.663698673E0
1.158669184E1,8.595777154E-1,-2.462533474E0,-4.022527218E0
1.159668023E1,-3.076308370E-1,-3.199373722E0,-4.099904537E0
1.160667223E1,-1.349239826E0,-3.919591904E0,-4.031513214E0
1.161667707E1,-1.991275072E0,-4.321670532E0,-3.974616528E0
1.162666980E1,-2.198889017E0,-4.276571274E0,-3.666488409E0
1.163673804E1,-2.174529791E0,-3.957237720E0,-3.619840384E0
1.164668665E1,-1.980353117E0,-3.562864304E0,-3.796705723E0
1.165670815E1,-1.719489098E0,-3.216110229E0,-3.440935135E0
1.166667842E1,-9.190604687E-1,-2.769202709E0,-2.962481260E0
1.167667538E1,1.871961653E-1,-2.483467579E0,-2.651917219E0
1.168669619E1,1.535665274E0,-2.278485775E0,-2.883813143E0
1.169672946E1,2.039648294E0,-2.522307396E0,-3.037026882E0
1.170670057E1,-7.962158322E-2,-2.652142525E0,-1.578311920E0
1.171666842E1,-1.081148624E0,-2.212043285E0,-8.300366402E-1
1.172668627E1,-1.706520319E0,-2.027803421E0,-7.192702293E-1
1.173673150E1,-1.652701259E0,-1.894145966E0,-1.754929543E0
1.174666657E1,-3.313869834E-1,-1.371810436E0,-3.717529297E0
1.175666557E1,9.620949030E-1,-1.103970528E0,-5.069610596E0
1.176666542E1,1.062548041E0,-1.447558880E0,-5.849754810E0
1.177714357E1,6.399789453E-1,-1.955673218E0,-5.634318829E0
1.178674988E1,1.979362816E-1,-2.259778500E0,-3.942894459E0
1.179666673E1,-1.987006366E-1,-2.190746307E0,-2.422781229E0
1.180667346E1,-4.070142210E-1,-1.808730602E0,-1.492957830E0
1.181667077E1,-2.226489037E-1,-1.535556316E0,-9.911241531E-1
1.182666884E1,-1.362089366E-1,-1.639895916E0,-1.376861811E0
1.183675284E1,-3.955689669E-1,-1.913462639E0,-2.295924187E0
1.184668304E1,-4.702194333E-1,-2.019484043E0,-3.142358065E0
1.185669123E1,2.565733194E-1,-1.704275608E0,-4.348229885E0
1.186666850E1,1.190699339E0,-1.508718014E0,-5.372131348E0
1.187667061E1,1.692855835E0,-1.701043129E0,-5.743400574E0
1.188674023E1,1.600639462E0,-2.116278172E0,-5.543567181E0
1.189695042E1,6.980379820E-1,-2.735012531E0,-4.453034878E0
1.190670000E1,-3.718992174E-1,-3.224611759E0,-2.890128374E0
1.191669630E1,-1.124919295E0,-3.388264656E0,-1.801156282E0
1.192667557E1,-1.128363848E0,-3.071301937E0,-1.776071548E0
1.193666938E1,-7.066493630E-1,-2.500947952E0,-2.563255072E0
1.194666642E1,-4.098725915E-1,-2.233765125E0,-3.348992825E0
1.195667754E1,-1.709056497E-1,-2.506994247E0,-3.683506012E0
1.196670773E1,1.390151531E-1,-2.829726219E0,-3.912103176E0
1.197665976E1,1.152693257E-1,-3.151615143E0,-3.883757114E0
1.198671392E1,-1.991137266E-1,-3.542528152E0,-3.413156748E0
1.199668307E1,-1.038188100E0,-3.978279114E0,-2.634879112E0
1.200666654E1,-2.114162207E0,-3.852639675E0,-1.928086519E0
1.201666226E1,-1.614709854E0,-3.381690025E0,-2.000047922E0
1.202664684E1,1.846511662E-2,-3.431118488E0,-3.413325071E0
1.203665200E1,2.425916672E0,-2.888505936E0,-3.597799301E0
1.204667673E1,2.821280241E0,-2.432306767E0,-3.873495579E0
1.205669369E1,2.407345057E0,-2.567370415E0,-3.660732985E0
1.206667611E1,1.094016671E0,-2.728873253E0,-2.489888191E0
1.207664073E1,-3.749770820E-1,-2.661911011E0,-1.094888210E0
1.208669915E1,-1.530804753E0,-3.142065525E0,-6.052350998E-1
1.209671396E1,-2.284480095E0,-4.156004906E0,-1.142654419E0
1.210674965E1,-2.326422453E0,-4.741865635E0,-1.446116924E0
1.211665600E1,-2.313132763E0,-4.557281971E0,-1.533463240E0
1.212670900E1,-2.485134125E0,-4.023344994E0,-1.380475521E0
1.213673204E1,-1.119997263E0,-3.445440769E0,-4.207062721E-1
1.214676815E1,1.051911950E0,-2.666802406E0,7.988882065E-2
1.215669461E1,2.689550877E0,-1.689113140E0,-4.017004967E-1
1.216666242E1,2.923273087E0,-1.686254025E0,-2.395072460E0
1.217665865E1,2.125963688E0,-2.558915138E0,-4.848620892E0
1.218672404E1,9.417732954E-1,-3.261288166E0,-6.154093266E0
1.219671257E1,2.089653015E-1,-3.748621941E0,-5.882427216E0
1.220669950E1,1.044903994E-1,-4.277217388E0,-5.944746494E0
1.221671623E1,6.419132352E-1,-4.329553604E0,-1.137854576E0
1.222671953E1,1.373874784E0,-3.960054398E0,2.204289436E0
1.223671761E1,1.297545910E0,-3.701407433E0,4.677361012E0
1.224666700E1,5.150043964E-2,-3.407993793E0,5.619822025E0
1.225672519E1,-8.465570807E-1,-3.223284245E0,4.825848103E0
1.226666646E1,-9.687334895E-1,-3.523775101E0,2.238434792E0
1.227667323E1,-8.965778351E-1,-3.877914906E0,-6.775298119E-1
1.228667603E1,-8.071696162E-1,-4.101512909E0,-2.695224524E0
1.229679288E1,-8.111349344E-1,-4.147801876E0,-3.829910755E0
1.230668607E1,-1.044227719E0,-3.782641888E0,-3.944906950E0
1.231667169E1,-8.652768731E-1,-2.885674477E0,-2.722717524E0
1.232667173E1,-5.014282465E-1,-1.896268845E0,-1.087366581E0
1.233670065E1,-6.001680493E-1,-1.153116703E0,2.291722298E-1
1.234670534E1,-6.143363714E-1,-8.150587082E-1,8.947567940E-1
1.235668476E1,-1.036312938E0,-2.038679600E0,-6.100449562E-1
1.236667253E1,-1.471595526E0,-2.551906109E0,-1.332170010E0
1.237666892E1,-1.629155874E0,-2.776408195E0,-1.465806961E0
1.238670623E1,-9.231778383E-1,-2.690718174E0,-1.148773670E0
1.239667115E1,2.527235150E-1,-2.271456242E0,-3.130688667E-1
1.240667930E1,1.567223310E0,-1.686493874E0,9.514513016E-1
1.241671307E1,2.141112566E0,-1.284489155E0,1.427264214E0
1.242672296E1,1.806575418E0,-8.027858734E-1,1.014381886E0
1.243703815E1,1.143562555E0,-4.725809097E-1,-3.854889870E-1
1.244667053E1,3.150728941E-1,-6.785006523E-1,-1.775573254E0
1.245666388E1,-8.249981403E-1,-1.235640049E0,-2.235347271E0
1.246666257E1,-2.316445827E0,-1.914653063E0,-1.494061947E0
1.247665150E1,-3.111462355E0,-2.157841206E0,8.763008118E-1
1.248665961E1,-2.452688932E0,-1.606932402E0,3.843477249E0
1.249665292E1,-9.163471460E-1,-1.072997332E0,6.459671974E0
1.250666815E1,9.792571664E-1,-6.280088425E-1,7.495321274E0
1.251665338E1,2.718886137E0,-7.901375294E-1,6.289161682E0
1.252665996E1,3.993203402E0,-1.523887396E0,5.501654625E0
1.253672153E1,4.173837662E0,-1.545493364E0,5.172422409E0
1.254665550E1,3.167753220E0,-1.104700565E0,4.260165215E0
1.255675115E1,1.629036069E0,-7.916471958E-1,2.668284416E0
1.256666150E1,3.798553348E-1,-6.192994118E-1,1.282958031E0
1.257667369E1,-1.396103650E-1,-1.654214859E-1,1.738987923E0
1.258667434E1,6.534167528E-1,-6.078243256E-3,1.314645767E0
1.259666442E1,1.591865301E0,-1.106944084E-1,1.344944000E0
1.260667146E1,1.036654353E0,2.311868668E-1,1.669463158E0
1.261666330E1,-7.746983767E-1,5.497446060E-1,2.631877899E0
1.262673750E1,-2.498673916E0,4.160366058E-1,4.776493073E0
1.263668257E1,-2.946058750E0,3.616142273E-2,6.329999924E0
1.264671238E1,-2.511196613E0,-4.815058708E-1,7.084489822E0
1.265719361E1,-1.299041986E0,-7.910134792E-1,7.583458900E0
1.266668080E1,1.807199121E-1,-5.608518124E-1,7.566423416E0
1.267664311E1,1.057841301E0,-2.750117779E-1,3.847077370E0
1.268667657E1,1.031295538E0,7.371335030E-1,1.203066826E0
1.269664323E1,4.485538602E-1,1.534228325E0,-6.269407272E-1
1.270665277E1,-5.358186960E-1,2.015424967E0,-1.133126259E0
1.271665176E1,-2.293027878E0,2.484551430E0,4.412660599E-1
1.272666946E1,-3.070643425E0,2.310231924E0,2.806553841E0
1.273666292E1,-2.926697731E0,1.089637518E0,4.725117683E0
1.274664796E1,-1.991391420E0,-2.021996975E-1,4.722606659E0
1.275665465E1,-2.902823091E-1,-6.771342754E-1,3.168792725E0
1.276666253E1,1.647265673E0,-1.832835674E-1,1.746611595E0
1.277667919E1,3.085900784E0,8.907618523E-1,9.994640350E-1
1.278667634E1,3.560990810E0,1.629711390E0,2.515125275E-1
1.279666365E1,3.020357132E0,1.950155497E0,-4.364433289E-1
1.280666969E1,8.417049646E-1,2.469101906E0,-1.863136292E-1
1.281665942E1,-2.268706322E0,2.821036816E0,7.249679565E-1
1.282671519E1,-3.650508404E0,2.212826729E0,1.946830750E0
1.283666715E1,-2.567399979E0,1.154575109E0,4.150741577E0
1.284666803E1,2.373264432E-1,5.724492669E-1,6.035880089E0
1.285675053E1,2.354469299E0,6.075409055E-1,7.197972298E0
1.286669261E1,2.964400768E0,8.348173499E-1,7.178343773E0
1.287667357E1,2.102338552E0,8.656694293E-1,5.515135765E0
1.288667346E1,5.116837025E-1,7.164407372E-1,3.023653030E0
1.289667100E1,-7.672394514E-1,6.038203239E-1,1.283938408E0
1.290675830E1,-1.615968227E0,3.700570464E-1,4.649095535E-1
1.291672246E1,-2.028534889E0,1.352264285E-1,2.000083923E-1
1.292669788E1,-1.593052864E0,6.338222325E-2,5.277156830E-2
1.293676146E1,-9.354593754E-1,2.239763737E-1,-3.009634018E-1
1.294666553E1,-1.905040741E-1,5.473398566E-1,2.218923569E-1
1.295672377E1,7.211079597E-1,8.988816142E-1,1.663676262E0
1.296671642E1,9.407550097E-1,8.774392009E-1,2.779481888E0
1.297672427E1,9.937998056E-1,7.747848034E-1,3.930537224E0
1.298675261E1,8.638648987E-1,6.753563881E-1,3.784484863E0
1.299667753E1,3.363447189E-1,5.951067209E-1,2.460793495E0
1.300667842E1,-7.468825579E-1,5.664338470E-1,-3.362579346E-1
1.301666719E1,-8.906961083E-1,5.159645081E-1,-9.768381119E-1
1.302672776E1,-6.796754599E-1,4.630679190E-1,-1.048274040E0
1.303666850E1,-2.941393852E-1,3.311100304E-1,-6.236085892E-1
1.304671061E1,4.303420782E-1,1.859264672E-1,8.934116364E-2
1.305667123E1,1.271642685E0,2.591679692E-1,7.937374115E-1
1.306674550E1,1.921547890E0,4.228150845E-1,1.304424286E0
1.307667053E1,2.133081198E0,6.461378932E-1,2.024700165E0
1.308671834E1,1.879069328E0,9.325389266E-1,2.766540527E0
1.309672138E1,1.610283136E0,1.207830906E0,3.346671104E0
1.310675865E1,1.292616606E0,1.419607401E0,3.722705841E0
1.311669523E1,8.869524002E-1,1.337499380E0,3.723945618E0
1.312668734E1,6.186649799E-1,1.073980570E0,3.488869667E0
1.313667569E1,3.047280312E-1,6.934118271E-1,2.974363327E0
1.314671411E1,-1.810214520E-1,3.562217355E-1,2.280450821E0
1.315674515E1,-4.691941738E-1,-1.087701321E-2,1.715209961E0
1.316672069E1,-2.534372807E-1,-2.544146776E-1,1.894845963E0
1.317671734E1,-9.016561508E-2,-3.498491049E-1,2.334774017E0
1.318669088E1,-2.170469761E-1,-4.363281727E-1,2.517210960E0
1.319667423E1,-2.597267628E-1,-4.530156851E-1,2.791516304E0
1.320667784E1,-2.458598614E-1,-2.929708958E-1,3.398278236E0
1.321671915E1,-1.705386639E-1,-1.146551371E-1,3.485307693E0
1.322672030E1,9.217357635E-2,-3.969025612E-2,2.994095802E0
1.323673550E1,4.050738811E-1,4.500246048E-2,2.757058144E0
1.324673307E1,5.816667080E-1,2.162365913E-1,2.690434456E0
1.325672496E1,7.783133984E-1,2.957785130E-1,2.263095856E0
1.326666403E1,1.065340519E0,4.366443157E-1,1.663624763E0
1.327668203E1,1.180374384E0,7.756724358E-1,1.309556007E0
1.328667750E1,1.081641912E0,9.769145250E-1,1.069871902E0
1.329666688E1,1.111096859E0,9.850438833E-1,1.008556366E0
1.330670388E1,1.109790802E0,8.479782939E-1,1.252744675E0
1.331673361E1,9.556334019E-1,3.913670778E-1,1.631166458E0
1.332672834E1,-1.757948399E-1,-6.821697950E-1,2.221029282E0
1.333672153E1,-4.884364605E-1,-9.557178020E-1,2.383319855E0
1.334671126E1,-6.829153299E-1,-9.170619249E-1,2.163109779E0
1.335673296E1,-6.679629087E-1,-5.425407887E-1,1.649829865E0
1.336668230E1,-6.384568214E-1,-1.924862862E-1,1.038153648E0
1.337668276E1,-1.014186025E0,-7.927477360E-2,-3.443059921E-1
1.338668038E1,-1.017723560E0,1.872551441E-2,-1.190711021E0
1.339666015E1,-7.023239136E-1,3.343021870E-2,-1.651810646E0
1.340666207E1,-5.195777416E-1,2.233749628E-1,-1.598664761E0
1.341670826E1,3.262200356E-1,1.510258913E-1,-1.130191803E0
1.342671219E1,3.807158470E-1,-9.472596645E-2,-3.808765411E-1
1.343668223E1,4.032900333E-1,-5.932018757E-1,5.841360092E-1
1.344672876E1,3.386187553E-1,-1.029925585E0,2.216849327E0
1.345667761E1,5.575144291E-1,-1.276539803E0,3.804590225E0
1.346671592E1,8.073639870E-1,-1.061145544E0,5.032742500E0
1.347667042E1,1.115481853E0,-7.302114964E-1,5.600522995E0
1.348667423E1,1.202905655E0,-6.232337952E-1,5.513892174E0
1.349666242E1,1.499673367E0,-3.417720795E-1,5.310221672E0
1.350673003E1,1.558393002E0,-6.069350243E-2,4.226072311E0
1.351671384E1,6.770789623E-1,-3.431072235E-1,3.707499504E0
1.352672523E1,1.673979759E-1,-7.241275311E-1,3.789242744E0
1.353672123E1,9.108426571E-1,-1.371265411E0,3.268098831E0
1.354666365E1,1.779460669E0,-2.301526546E0,2.626866341E0
1.355669330E1,2.696715832E0,-2.587255955E0,1.776114464E0
1.356666615E1,3.185679913E0,-1.920408487E0,1.443414688E0
1.357666461E1,2.531071663E0,-7.764272690E-1,2.237628937E0
1.358668573E1,1.114360571E0,-1.141574383E-1,2.944456100E0
1.359668080E1,-6.292235851E-2,-1.706795692E-1,3.236913681E0
1.360673373E1,-3.832336664E-1,-4.938757420E-1,2.224505424E0
1.361666961E1,-2.346881628E-1,-5.596435070E-1,8.596248627E-1
1.362667596E1,-4.079647660E-1,-3.334021568E-1,2.201683998E0
1.363671600E1,1.000958681E-1,-3.351223469E-1,3.946488380E0
1.364672300E1,1.031342745E-1,-8.648135662E-1,3.851545334E0
1.365667300E1,-1.752483845E-1,-1.001952767E0,3.826610565E0
1.366672588E1,-1.990092993E-1,-8.617050648E-1,5.152318001E0
1.367666723E1,5.296454430E-1,-5.194749832E-1,6.132512093E0
1.368666684E1,1.019044638E0,-3.385472298E-1,5.352343559E0
1.369665973E1,1.093845844E0,-3.550525904E-1,4.582181931E0
1.370666434E1,1.121634603E0,-6.754407883E-1,4.037493706E0
1.371665815E1,2.581255436E-1,-1.171252012E0,4.801403999E0
1.372672261E1,-1.124877930E0,-1.130388260E0,6.021068573E0
1.373666376E1,-2.548987865E0,-1.271688581E0,6.704463005E0
1.374666892E1,-2.581180096E0,-1.567681074E0,7.195125580E0
1.375670538E1,-1.202322364E0,-1.373402834E0,7.531517029E0
1.376668850E1,-2.528173029E-1,-1.051784158E0,8.193061829E0
1.377667580E1,-1.661413908E-1,-1.054500222E0,7.845587730E0
1.378666142E1,-7.554420233E-1,-1.872487783E0,6.524972916E0
1.379671673E1,-1.796330452E0,-2.909180880E0,5.843243599E0
1.380677650E1,-2.143608570E0,-2.818797827E0,7.103753090E0
1.381669588E1,-1.327429295E0,-2.195968151E0,8.763277054E0
1.382667623E1,2.689907551E-1,-1.665769339E0,8.227050781E0
1.383670680E1,1.742534637E0,-1.477639794E0,6.058096886E0
1.384667461E1,2.263343811E0,-9.350572228E-1,4.051785469E0
1.385667334E1,2.291538954E0,-9.030680656E-1,3.500588417E0
1.386671296E1,2.288841009E0,-1.390544295E0,3.851536751E0
1.387666903E1,2.125224113E0,-2.028411388E0,4.495421410E0
1.388671369E1,1.875627995E0,-1.827585340E0,4.627794266E0
1.389667223E1,1.753862858E0,-1.580394268E0,3.253878593E0
1.390666657E1,1.989877105E0,-1.594874144E0,1.012373924E0
1.391670942E1,2.342306852E0,-8.772213459E-1,-2.840028763E0
1.392667373E1,2.454254627E0,-4.150199890E-2,-4.425376415E0
1.393672496E1,2.464691162E0,1.861920357E-1,-3.188189030E0
1.394667076E1,3.034043312E0,9.405088425E-2,-1.581780434E0
1.395673846E1,2.494546890E0,-2.714629173E-1,2.726173401E-1
1.396673896E1,2.126101732E0,-1.220912457E0,1.271162033E-1
1.397672250E1,1.996454716E0,-1.890861750E0,3.106771469E0
1.398671523E1,1.321003914E0,-1.943530560E0,4.186493874E0
1.399671350E1,1.156804085E0,-2.414684534E0,3.872238159E0
1.400673157E1,1.649252176E-1,-3.029174805E0,1.231251717E0
1.401669238E1,-1.464570999E0,-3.556371689E0,-3.474686623E0
1.402667484E1,-2.636165857E0,-3.927754879E0,-6.496931076E0
1.403683053E1,-2.607392311E0,-4.133804321E0,-7.711557865E0
1.404672138E1,-3.228492737E0,-4.028452873E0,-7.484141827E0
1.405666988E1,-3.090633154E0,-4.591881752E0,-7.130622387E0
1.406671700E1,-2.154789448E0,-4.204154968E0,-6.091112137E0
1.407671373E1,-1.138123989E0,-3.426785707E0,-4.538861275E0
1.408672246E1,2.542720735E-2,-2.119091988E0,-2.834753513E0
1.409672576E1,2.411486864E0,-1.223457336E0,-3.122239113E-1
1.410667480E1,3.681699753E0,-8.947381973E-1,2.975910664E0
1.411666511E1,4.245054245E0,-8.497128487E-1,7.573455811E0
1.412672557E1,3.555427551E0,-1.342916965E0,8.452263832E0
1.413667388E1,1.311403275E0,-2.239270210E0,7.024862766E0
1.414668415E1,-3.591955602E-1,-2.922189713E0,6.327949047E0
1.415673680E1,-1.285973787E0,-3.159657955E0,5.273385525E0
1.416733334E1,-1.533975601E0,-3.445210695E0,2.572991848E0
1.417673965E1,-2.365182936E-1,-2.919411659E0,-1.923318386E0
1.418666184E1,1.358244896E0,-2.575796127E0,-5.779079437E0
1.419672219E1,1.117038250E0,-3.164905548E0,-7.923594952E0
1.420669026E1,-8.015393019E-1,-4.082302094E0,-8.521290779E0
1.421665653E1,-2.482672215E0,-5.554624081E0,-8.119865417E0
1.422664830E1,-2.594214678E0,-5.395696640E0,-6.598569393E0
1.423669215E1,-1.999181151E0,-3.691647530E0,-4.303317070E0
1.424664246E1,-9.941797256E-1,-2.444300175E0,-1.942066431E0
1.425669357E1,7.132729292E-1,-1.061598301E0,7.425928116E-2
1.426665053E1,1.894207954E0,-9.030933380E-1,9.065585136E-1
1.427664546E1,1.271615863E0,-1.184316635E0,8.706464767E-1
1.428664488E1,3.669080734E-1,-1.743317127E0,-1.045418739E0
1.429664250E1,-9.039729238E-1,-5.334748268E0,-4.692957878E0
1.430669157E1,-1.549459815E0,-6.039798737E0,-5.920099258E0
1.431664403E1,-2.060205698E0,-5.115552902E0,-6.316064835E0
1.432669607E1,-2.025869370E0,-3.586382866E0,-6.263557434E0
1.433664572E1,-1.464473128E0,-2.993382931E0,-5.576779842E0
1.434664253E1,-2.029009342E0,-3.136507034E0,-3.500031710E0
1.435666296E1,-2.783536196E0,-3.570845127E0,-1.490719557E0
1.436666926E1,-1.720324755E0,-4.651581764E0,-5.540518761E-1
1.437673015E1,-3.805631995E-1,-4.430377007E0,-8.973104954E-1
1.438668042E1,4.994213283E-1,-3.370908260E0,-8.893542290E-1
1.439667703E1,-8.359253407E-3,-3.203791142E0,-1.100347042E-1
1.440669734E1,-4.118269682E-1,-3.659810066E0,6.419961452E-1
1.441668165E1,-8.732251525E-1,-3.883941650E0,8.608939648E-1
1.442666761E1,-1.573679686E0,-3.979122639E0,-1.566174030E-1
1.443666838E1,-1.491656065E0,-3.402205467E0,-3.129034996E0
1.444666826E1,-3.257753849E-1,-2.587712765E0,-4.924581051E0
1.445668919E1,7.863531709E-1,-2.099610806E0,-3.824985981E0
1.446760873E1,1.088418603E0,-1.458965778E0,-1.736964703E0
1.447666972E1,4.821808338E-1,-1.294885159E0,-1.521785259E-1
1.448666961E1,-3.279880881E-1,-1.349118710E0,7.214801311E-1
1.449667573E1,-9.219743013E-1,-7.650814056E-1,1.090156078E0
1.450694915E1,-5.211608410E-1,-8.497877121E-1,-1.283121109E-1
1.451667042E1,-1.865943074E-1,-1.475765705E0,-2.755102634E0
1.452669438E1,-3.324894905E-1,-2.044096470E0,-4.224574089E0
1.453667265E1,-5.544143915E-1,-2.077612877E0,-3.225907326E0
1.454667092E1,-3.501376808E-1,-1.981191158E0,-1.143883586E0
1.455669453E1,-1.670587063E-1,-1.939851284E0,3.666968346E-1
1.456667096E1,-7.230710983E-2,-1.572382450E0,1.189612627E0
1.457675780E1,-4.527165890E-1,-6.746616364E-1,1.122151136E0
1.458668215E1,1.814037561E-2,-6.241168976E-1,9.836339951E-2
1.459667403E1,-2.147763968E-2,-1.087596893E0,-9.180990458E-1
1.460669288E1,-8.470684290E-2,-1.214385986E0,-2.705832243E0
1.461669038E1,5.438398123E-1,-1.204597473E0,-3.633296967E0
1.462666634E1,3.769648671E-1,-1.288282394E0,-4.468754768E0
1.463667046E1,-2.698842287E-1,-1.701375961E0,-4.036514282E0
1.464667223E1,-1.042279959E0,-1.981123447E0,-2.783399105E0
1.465674119E1,-1.659228563E0,-2.120850563E0,-1.311561704E0
1.466669111E1,-1.931570411E0,-2.010904789E0,-2.017807961E-1
1.467666530E1,-2.022407770E0,-2.367079735E0,1.251838684E0
1.468665807E1,-2.194558620E0,-2.696298122E0,2.764907837E0
1.469667123E1,-2.283579826E0,-2.754570484E0,3.243226767E0
1.470673130E1,-1.885523319E0,-2.938142300E0,2.665175915E0
1.471671315E1,-1.304589152E0,-2.678733349E0,6.959984303E-1
1.472673719E1,-9.833142757E-1,-2.072495937E0,-1.387388706E0
1.473672665E1,-7.675018311E-1,-2.082920551E0,-2.922124863E0
1.474672365E1,-7.413064241E-1,-2.737869263E0,-3.319543123E0
1.475667176E1,-1.306451201E0,-3.253148556E0,-2.599724054E0
1.476671807E1,-1.421810150E0,-3.268608570E0,-1.079249501E0
1.477675184E1,-8.544415832E-1,-2.856163502E0,5.035417080E-1
1.478668553E1,-6.501847506E-1,-2.062976837E0,1.660491824E0
1.479668003E1,-1.720911860E-1,-1.564010620E0,2.140549660E0
1.480669957E1,4.163103104E-1,-1.348429680E0,1.883545756E0
1.481673007E1,9.146161079E-1,-1.115122795E0,1.223743081E0
1.482667480E1,1.086141348E0,-1.522888184E0,-6.109118462E-3
1.483666838E1,7.164926529E-1,-2.212737560E0,-1.786152244E0
1.484668792E1,3.527189493E-1,-2.611689568E0,-3.586462975E0
1.485745984E1,2.841209173E-1,-2.842585087E0,-4.644328594E0
1.486666569E1,3.800690770E-1,-2.913586617E0,-5.038170815E0
1.487665626E1,-6.839752197E-2,-2.514473438E0,-4.337430954E0
1.488665176E1,-2.893894911E-1,-2.087727547E0,-2.652326822E0
1.489664273E1,-8.139407635E-2,-2.044714928E0,-4.101859331E-1
1.490664876E1,-1.414616406E-1,-2.036355495E0,1.566689849E0
1.491668192E1,-4.050835967E-1,-1.609790802E0,2.897091389E0
1.492668080E1,-3.141504228E-1,-1.585465431E0,3.195079327E0
1.493664565E1,-2.996165454E-1,-2.198615551E0,2.948692799E0
1.494665007E1,8.024047613E-1,-3.048685074E0,-5.502607822E-1
1.495664765E1,1.427728057E0,-3.192377567E0,-2.851692200E0
1.496668049E1,8.877280354E-1,-2.837753296E0,-4.432687283E0
1.497666426E1,3.491361141E-1,-1.945404530E0,-4.895073891E0
1.498664557E1,6.231163740E-1,-1.702342987E0,-3.747969627E0
1.499664396E1,2.768707871E-1,-2.102398872E0,-1.618959665E0
1.500669869E1,-2.417126745E-1,-3.091222286E0,-5.332813263E-1
1.501667823E1,-7.193310857E-1,-3.882816792E0,-8.233309388E-1
1.502668146E1,-2.372928113E-1,-4.523699760E0,-1.556804657E0
1.503667772E1,-2.226873636E-1,-4.206182003E0,-2.256069899E0
1.504667907E1,-5.691776276E-1,-3.205121517E0,-2.392757893E0
1.505673476E1,-2.394286543E-1,-2.803380489E0,-1.209860325E0
1.506667272E1,3.133694828E-1,-3.432042122E0,5.624253750E-1
1.507672365E1,1.178689301E-2,-3.871966839E0,1.349557161E0
1.508672046E1,-5.556231141E-1,-3.692711353E0,1.275092602E0
1.509667938E1,1.375517398E-1,-4.101460934E0,5.731356144E-1
1.510670315E1,4.083686173E-1,-4.734568119E0,-6.082390547E-1
1.511666607E1,5.199313164E-4,-4.925038815E0,-2.893225193E0
1.512667592E1,-5.087167025E-1,-4.262403965E0,-5.578109264E0
1.513671780E1,-6.595856547E-1,-4.086720467E0,-4.777752876E0
1.514674311E1,-9.227668643E-1,-3.993795872E0,-2.226159334E0
1.515667496E1,-1.062981486E0,-3.581640720E0,-3.332688808E-1
1.516671496E1,-3.551300764E-1,-3.840826988E0,-5.739762783E-1
1.517670523E1,-8.185920119E-2,-4.498842716E0,-1.427283287E0
1.518671599E1,1.011806726E-2,-4.921887875E0,-2.408333302E0
1.519674715E1,1.798845530E-1,-4.169009209E0,-4.556528091E0
1.520670626E1,4.777396917E-1,-3.206423759E0,-6.578480721E0
1.521667280E1,-5.482093096E-1,-2.852466583E0,-7.202373505E0
1.522667665E1,-2.407804012E0,-3.224980354E0,-6.199264050E0
1.523666642E1,-2.460886478E0,-4.418658257E0,-3.593099356E0
1.524667857E1,-1.810014963E0,-4.813198090E0,-1.586179733E-1
1.525673165E1,-1.359405041E0,-3.969531059E0,1.719605446E0
1.526672765E1,-2.779695988E-1,-3.076652050E0,-9.127893448E-1
1.527666392E1,-4.792528152E-1,-2.523568153E0,-2.850835562E0
1.528672169E1,-8.640251160E-1,-2.472755432E0,-3.309588432E0
1.529665819E1,-1.504709721E0,-3.248505592E0,-2.062975168E0
1.530673119E1,-1.512109041E0,-4.238028049E0,-5.763401985E-1
1.531666422E1,-1.055426598E0,-4.340318680E0,7.571001053E-1
1.532672507E1,-4.917219877E-1,-3.649920225E0,1.542626858E0
1.533666715E1,-2.710329294E-1,-2.528922081E0,1.199757099E0
1.534671726E1,7.380509377E-2,-1.769114494E0,-2.109479904E-2
1.535672649E1,4.679198265E-1,-1.861417294E0,-1.686079025E0
1.536666138E1,6.158262491E-1,-2.830788136E0,-2.835405350E0
1.537667546E1,-6.973338127E-2,-4.260144711E0,-3.966565132E0
1.538668880E1,-1.179622412E0,-6.159151077E0,-5.369765282E0
1.539672980E1,-2.048791409E0,-7.643556595E0,-5.644102097E0
1.540673172E1,-1.827514410E0,-8.095831871E0,-4.310775757E0
1.541671573E1,-8.442659378E-1,-8.005036354E0,-8.042855263E-1
1.542669819E1,1.882069111E-1,-6.983542919E0,3.517318726E0
1.543667123E1,2.892534018E0,-5.288935184E0,5.579315186E0
1.544667465E1,4.072176933E0,-3.644588470E0,5.200022221E0
1.545667826E1,3.338406086E0,-2.119255304E0,3.280839443E0
1.546669434E1,2.934824705E0,-1.910227776E0,1.091698647E0
1.547666476E1,2.589200258E0,-3.182391167E0,1.154994965E-1
1.548671849E1,1.535324574E0,-3.763904333E0,-7.284355164E-2
1.549672142E1,1.218620539E0,-3.481005907E0,1.748979568E0
1.550673153E1,-5.689358711E-2,-1.945129871E0,4.334861755E0
1.551673788E1,1.124296308E0,-4.130699635E-1,4.393760681E0
1.552668676E1,2.005811214E0,2.270240784E-1,2.914233208E0
1.553666461E1,1.486658692E0,-1.121449471E-2,4.033560753E0
1.554672542E1,-7.034389973E-1,-9.703694582E-1,7.182298660E0
1.555667526E1,-3.481829166E0,-2.505938292E0,9.738957405E0
1.556684092E1,-4.085615873E-1,-1.840866208E0,9.940700531E0
1.557666896E1,-6.281611919E-1,-1.640550256E0,9.857824326E0
1.558671969E1,1.087359786E0,2.715384483E0,6.176102638E0
1.559674799E1,4.382539272E0,4.448902130E0,7.056076050E0
1.560666107E1,1.426439047E0,4.485040665E0,7.534043312E0
1.561672292E1,2.134987712E-1,2.066903591E0,9.042592049E0
1.562780738E1,-2.792280912E0,-2.623458803E-1,1.120313263E1
1.563673484E1,-3.999631405E0,-2.056170464E0,1.267315960E1
1.564673080E1,-2.940536261E0,-3.022928238E0,1.447404480E1
1.565674299E1,-1.747343421E0,-1.430040836E0,1.391234684E1
1.566666380E1,-6.713447571E-1,7.758949399E-1,1.070821190E1
1.567666988E1,8.232845068E-1,2.138635874E0,7.708582878E0
1.568671565E1,1.380362988E0,3.080336332E0,5.151404381E0
1.569671819E1,2.521249056E0,4.289150238E0,2.521846771E0
1.570670084E1,2.303729296E0,5.017307758E0,1.326314926E0
1.571667099E1,1.455591202E0,5.070167065E0,3.110232353E0
1.572673576E1,5.427442789E-1,4.766225815E0,6.549402237E0
1.573666284E1,-6.896644235E-1,4.177593708E0,8.996169090E0
1.574666515E1,-1.502675295E0,3.285016537E0,9.653758049E0
1.575667419E1,-1.734485030E0,2.131477833E0,9.500363350E0
1.576671749E1,-2.145222664E0,1.165314555E0,1.029480553E1
1.577668872E1,-2.459596634E0,7.228574753E-1,1.075095081E1
1.578671511E1,-2.611916065E0,1.057992458E0,9.923669815E0
1.579666442E1,-2.380426645E0,1.475772142E0,8.319047928E0
1.580679072E1,-1.628606796E0,1.969905138E0,6.470594406E0
1.581671838E1,-9.995362759E-1,2.630662441E0,3.956069946E0
1.582673949E1,-8.785450459E-1,3.024618864E0,1.724932671E0
1.583666299E1,-6.283348203E-1,3.648384094E0,5.283203125E-1
1.584676188E1,-5.123738647E-1,4.288733959E0,1.044749260E0
1.585667615E1,-1.008821487E0,4.132217407E0,1.642994881E0
1.586666811E1,-1.260884881E0,3.434163570E0,1.842090607E0
1.587683365E1,-1.022584677E0,2.679840088E0,1.989995956E0
1.588668842E1,-7.377182245E-1,1.830814600E0,1.758331299E0
1.589667499E1,-8.318608999E-1,1.215598941E0,1.358913422E0
1.590668672E1,-1.037389994E0,1.291105032E0,6.227703094E-1
1.591672669E1,-4.047387242E-1,1.873336554E0,5.943708420E-1
1.592666588E1,-1.424785852E0,1.343264222E0,1.133565903E0
1.593671349E1,-2.635014534E0,6.526723504E-1,1.346249580E0
1.594667342E1,-3.033365726E0,-2.850304842E-1,8.831825256E-1
1.595672746E1,-2.985872269E0,-1.560819864E0,1.865816116E0
1.596666672E1,-2.699823856E0,-1.181537390E0,4.362277031E0
1.597666703E1,-2.130073071E0,-8.894973993E-1,4.092654228E0
1.598671742E1,-6.811693907E-1,-9.314143658E-2,2.411460876E0
1.599667819E1,1.562459469E-1,5.140734911E-1,2.461388588E0
1.600667169E1,4.818372726E-1,1.705241442E0,4.590073586E0
1.601671642E1,1.931443334E0,2.662878036E0,5.039035797E0
1.602673719E1,3.029083490E0,2.734649181E0,4.876064301E0
1.603668534E1,2.764489412E0,2.400831938E0,5.050704956E0
1.604666638E1,1.243324041E0,1.678785324E0,4.323439598E0
1.605671988E1,2.387963533E-1,8.839014173E-1,3.296651840E0
1.606671334E1,2.982462645E-1,5.462778807E-1,2.980321884E0
1.607666919E1,3.927406073E-1,8.904891610E-1,2.570655823E0
1.608672811E1,-4.169249535E-2,1.457465172E0,1.910917282E0
1.609665926E1,-2.278717756E-1,1.732264280E0,1.216799736E0
1.610671761E1,7.395160198E-2,1.815582633E0,1.025733948E0
1.611666661E1,7.168412209E-2,1.468401670E0,1.088136673E0
1.612670988E1,-1.417452097E-1,9.191164970E-1,1.700537682E0
1.613665626E1,6.417524815E-2,6.809945703E-1,2.344075203E0
1.614674365E1,-3.947371244E-1,4.660477638E-1,2.580780029E0
1.615666672E1,-2.138961554E-1,-3.549656868E-1,3.111886024E0
1.616670211E1,1.563029289E-1,-5.338627100E-1,3.641504288E0
1.617665726E1,-4.375534058E-1,-1.118500233E-1,3.563534737E0
1.618670549E1,-1.393867731E0,3.116841912E-1,3.892637253E0
1.619667084E1,-1.012862444E0,5.498655438E-1,4.106160164E0
1.620670849E1,-9.657020569E-1,5.223387480E-1,3.202623367E0
1.621665903E1,-2.067359447E0,1.615877151E-1,2.288233757E0
1.622685311E1,-1.055203080E0,-1.006244302E0,1.650060654E0
1.623666776E1,1.092214823E0,-1.576085210E0,9.463005066E-1
1.624666046E1,8.740097284E-1,-6.553306580E-1,2.182814598E0
1.625667119E1,2.413094044E0,-1.570422053E0,4.219108582E0
1.626667784E1,3.287185669E0,-2.516327620E0,7.588539124E0
1.627673284E1,3.119952202E0,-2.400931120E0,1.078460217E1
1.628667122E1,2.749842644E0,-2.593503237E0,1.173194695E1
1.629666461E1,1.985894918E0,-2.694065809E0,1.078948212E1
1.630671853E1,1.331330895E0,-2.151255608E0,7.834787369E0
1.631666368E1,4.662504196E-1,-1.387528181E0,4.138740540E0
1.632667338E1,-4.517887831E-1,-9.839640856E-1,1.142576218E0
1.633666611E1,2.521229982E-1,-5.000612736E-1,-6.507921219E-1
1.634667626E1,5.493631363E-1,1.485612392E-1,-1.461638451E0
1.635667192E1,-7.641923428E-2,3.284538984E-1,-8.147602081E-1
1.636666246E1,-8.873870969E-1,-5.817950964E-1,1.719176292E0
1.637666615E1,-1.093833327E0,-1.551059723E0,5.570126534E0
1.638671811E1,1.324295998E-2,-2.048802853E0,7.669972420E0
1.639672772E1,1.538886070E0,-3.330103874E0,6.877061844E0
1.640666853E1,3.492280245E-1,-2.294929266E0,7.532510757E0
1.641667726E1,4.821252823E-1,-1.842382073E0,7.359923363E0
1.642668461E1,1.056874514E0,-2.588653326E0,6.137873650E0
1.643699380E1,1.774002671E0,-2.985835314E0,4.842391968E0
1.644668249E1,1.715345621E0,-2.566086769E0,4.393487930E0
1.645683534E1,1.996495485E0,-2.403603792E0,4.692342758E0
1.646671603E1,1.201233983E0,-2.274166346E0,5.370149612E0
1.647669153E1,2.040515423E0,-3.001033306E0,4.845373154E0
1.648667215E1,2.604263544E0,-3.374991417E0,3.746406555E0
1.649666007E1,2.176104784E0,-3.391270399E0,2.150565147E0
1.651385553E1,3.380881071E0,-3.099263430E0,-1.009713173E0
1.652671130E1,4.005199432E0,-2.279686213E0,-7.529258728E-1
1.653666169E1,1.640157104E0,-7.036646605E-1,-3.720378876E-2
1.654673445E1,3.564951420E-1,-2.406100035E-1,-1.802453995E-1
1.655668803E1,2.815006971E-1,-1.004997253E0,-1.695165634E0
1.656667449E1,-4.306447029E0,-2.340444088E0,-2.317603588E0
1.657666999E1,-1.474734306E0,-2.662861586E0,-2.468382835E0
1.658671215E1,1.746094704E0,-1.547840118E0,-1.632743835E0
1.659674330E1,4.356224060E0,1.110464558E-1,-7.700595856E-1
1.660673438E1,7.402086258E0,2.016074210E-1,-3.249168396E-1
1.661672949E1,6.960500717E0,-1.129120886E-1,2.131567001E-1
1.662667726E1,5.583010674E0,-1.226657778E-1,-4.738788605E-1
1.663670445E1,3.977456093E0,-8.438273668E-1,-2.203725815E0
1.664666849E1,1.368878722E0,-1.591279387E0,-2.803436756E0
1.665666515E1,-2.013994694E0,-9.476438165E-1,-2.575136662E0
1.666667238E1,-4.489571571E0,3.426085413E-1,-2.735654354E0
1.667667872E1,-1.881821156E0,4.882600904E-1,-3.510450363E0
1.668671280E1,1.144266129E-2,8.986283541E-1,-2.296514511E0
1.669667268E1,-3.762281239E-1,-2.437085360E-1,-7.121906281E-1
1.670672818E1,-5.282044411E-1,-1.937735081E0,-9.925527573E-1
1.671671680E1,-1.703388929E0,-2.670414448E0,-9.633808136E-1
1.672674188E1,-2.594759941E0,-2.542411089E0,8.664035797E-2
1.673672711E1,-3.490181640E-2,-7.198315263E-1,3.911914825E0
1.674667103E1,3.018537998E0,2.053793430E0,8.379656792E0
1.675672526E1,2.189721584E0,2.413185596E0,3.791404724E0
1.676666503E1,4.175881147E-1,2.126106024E0,3.714752197E-2
1.677666565E1,1.065865993E0,1.850156426E0,-2.484093189E0
1.678670253E1,6.442073584E-1,1.039894104E0,-3.765954494E0
1.679667707E1,-2.061922550E-1,6.518081576E-2,-4.884041309E0
1.680666742E1,-3.254221678E-1,-8.731037378E-1,-5.244297504E0
1.681672857E1,3.392443657E-1,-7.807361484E-1,-3.766204834E0
1.682667742E1,2.629205585E-1,-1.922169030E-1,-1.437276840E0
1.683666138E1,-1.117124557E-1,4.806527495E-1,-1.876811981E-1
1.684666499E1,-1.601178646E-1,5.037616491E-1,-1.272536278E0
1.685666895E1,-1.200843453E0,1.605469465E0,-4.470410824E0
1.686666484E1,7.638884187E-1,3.664694786E0,-6.880708694E0
1.687672568E1,2.552683353E0,3.972352028E0,-9.639797211E0
1.688673176E1,-4.276186228E-1,-1.856365919E0,-8.665209770E0
1.689668311E1,-4.403934479E-1,-3.835143328E0,-5.417593956E0
1.690666580E1,8.429239392E-1,-4.251200676E0,-1.472177505E0
1.691667945E1,1.658424139E0,-3.262082815E0,-3.284740448E-2
1.692673095E1,2.364943027E0,-1.767178774E0,-1.288313866E0
1.693667595E1,1.945731282E0,-5.799394846E-1,-4.109477997E0
1.694668880E1,7.110779285E-1,1.140042543E0,-6.946613312E0
1.695665826E1,7.895023823E-1,2.287518024E0,-8.261752129E0
1.696674172E1,1.155691385E0,1.277730584E0,-8.432321548E0
1.697666749E1,4.933246374E-1,3.599774837E-2,-7.204395294E0
1.698671711E1,-1.204800606E-1,-6.165941954E-1,-6.264838219E0
1.699671568E1,1.722711325E-1,-1.014650226E0,-5.410192966E0
1.700666880E1,3.581262827E-1,-1.238546848E0,-4.217949867E0
1.701667403E1,3.810800314E-1,-1.025269270E0,-3.604629517E0
1.702717095E1,3.536713123E-1,-1.187130928E0,-3.668547153E0
1.703804542E1,-1.131670475E-1,-1.509726763E0,-4.212855339E0
1.704671130E1,-5.010275841E-1,-1.451068759E0,-4.642614365E0
1.705669819E1,-2.197089195E-1,-8.537154794E-1,-4.196095943E0
1.706666057E1,2.229866982E-1,-8.557270765E-1,-4.161252499E0
1.707671545E1,4.273496866E-1,-7.046189904E-1,-3.956148148E0
1.708670511E1,8.876553178E-1,-3.715261817E-1,-3.413821697E0
1.709671776E1,9.762854576E-1,-2.626346350E-1,-2.955021381E0
1.710670880E1,8.846643567E-1,8.503091335E-2,-2.860857010E0
1.711665618E1,1.062470198E0,7.553886175E-1,-3.157885075E0
1.712666430E1,4.481894970E-1,8.117886782E-1,-3.536043167E0
1.713667903E1,-7.625936270E-1,6.752562523E-1,-4.019112587E0
1.714669099E1,-1.397992134E0,8.198273182E-1,-3.595405102E0
1.715666307E1,-1.053996205E0,9.652090073E-2,-2.903150082E0
1.716667188E1,-1.506068230E0,-6.480638385E-1,-2.344483376E0
1.717674342E1,-1.421748996E0,-6.271983981E-1,-1.521286011E0
1.718667634E1,-5.901688337E-1,-3.869229555E-1,-1.282402992E0
1.719673276E1,-3.925620317E-1,-5.871923566E-1,-1.243789673E0
1.720665892E1,-5.525211096E-1,1.022636890E-2,-3.104839325E-1
1.721675249E1,7.570469379E-2,1.997590899E0,-2.302679539E0
1.722667461E1,-3.923740387E-1,2.030874729E0,-3.243202686E0
1.723666938E1,-2.314161062E-1,1.889117360E0,-2.914953232E0
1.724673634E1,-6.666464806E-1,1.504114151E0,-2.398388386E0
1.725666449E1,-1.195999861E0,1.004160047E0,-1.642631531E0
1.726666407E1,-6.566050053E-1,5.521305799E-1,-1.200794220E0
1.727674045E1,-4.315614700E-2,4.216885567E-2,-1.073955536E0
1.728672126E1,2.434644699E-1,-1.426966190E-1,-8.998298645E-2
1.729674068E1,1.273674250E0,4.653266668E-1,-1.468839645E-1
1.730667157E1,1.258376122E0,9.518524408E-1,-9.340705872E-1
1.731672476E1,4.924691916E-1,7.991639376E-1,-9.755840302E-1
1.732674499E1,8.844876289E-2,7.746726274E-1,-1.144534111E0
1.733671742E1,-2.873545885E-1,7.362450361E-1,-1.809353352E0
1.734667688E1,-1.117656112E0,2.785849571E-2,-2.057717323E0
1.735667934E1,-1.381289721E0,-6.658204794E-1,-1.087315559E0
1.736665299E1,-1.025015593E0,-3.627212048E-1,-2.555370331E-1
1.737667676E1,-1.115651608E0,7.085967064E-1,-1.544086456E0
1.738665084E1,-3.805898428E-1,1.429613590E0,-2.747536182E0
1.739666695E1,3.769749999E-1,1.299096465E0,-1.984189987E0
1.740665688E1,4.113763571E-1,9.605693817E-1,-8.366022110E-1
1.741670553E1,3.636004329E-1,8.255543709E-1,-8.478441238E-1
1.742666230E1,3.700166345E-1,9.088933468E-1,-1.322133064E0
1.743664992E1,1.263959408E-1,6.707174778E-1,-2.112476826E0
1.744664619E1,-4.530544281E-1,4.035203457E-1,-2.557049274E0
1.745664792E1,-2.253328562E-1,7.266712189E-2,-2.111589909E0
1.746664284E1,9.154522419E-2,-5.048767328E-1,-1.446832657E0
1.747664857E1,-3.239734173E-1,-5.766932964E-1,-1.670568943E0
1.748664368E1,-6.230056286E-1,-3.104543686E-1,-2.447141647E0
1.749665692E1,-6.000972986E-1,-2.462369204E-1,-2.242779255E0
1.750666465E1,-4.814409018E-1,8.235216141E-3,-1.509014606E0
1.751667353E1,-9.950113297E-2,1.242361069E-1,-1.220340729E0
1.752673215E1,1.740983725E-1,-1.266653538E-1,-1.900680065E0
1.753711388E1,1.197633743E-1,-1.148414373E0,-3.780656338E0
1.754667522E1,6.275125742E-1,-1.710047483E0,-3.750625610E0
1.755671357E1,1.037909508E0,-2.225342989E0,-3.148387909E0
1.756671492E1,9.106767178E-1,-2.602099657E0,-2.425444126E0
1.757673288E1,4.527832270E-1,-2.746945381E0,-1.830111980E0
1.758675545E1,3.172171116E-1,-2.933174133E0,-2.139756680E0
1.759667034E1,7.946896553E-2,-2.627090216E0,-3.171255112E0
1.760666530E1,-4.224319458E-1,-2.130676031E0,-3.760829449E0
1.761667749E1,-4.237207174E-1,-2.068796396E0,-3.703032017E0
1.762671988E1,2.620288134E-1,-1.921239376E0,-3.561222076E0
1.763667138E1,1.449332237E-1,-2.058588743E0,-3.581793308E0
1.764672145E1,3.240108490E-4,-2.664873838E0,-3.344877243E0
1.765670976E1,4.518746138E-1,-2.776173115E0,-2.766938686E0
1.766673999E1,3.673198223E-1,-1.912035942E0,-2.437042236E0
1.767667142E1,5.694727898E-1,-8.763730526E-1,-3.344998360E0
1.768671772E1,9.609994292E-1,-8.790874481E-2,-4.097853184E0
1.769732303E1,1.075526714E0,4.294114113E-1,-4.493483543E0
1.770672288E1,1.152771235E0,3.669018745E-1,-4.978841782E0
1.771671718E1,4.277548790E-1,-4.356057644E-1,-5.357448578E0
1.772674492E1,-2.702800035E-1,-1.289072871E0,-4.653044701E0
1.773673718E1,-4.738020897E-1,-1.393714905E0,-3.312819481E0
1.774674230E1,-5.735368729E-1,-1.501132607E0,-2.915413857E0
1.775671134E1,-7.846872807E-1,-1.235874057E0,-2.312522888E0
1.776671538E1,2.122336626E-1,-3.803224564E-1,-1.438982487E0
1.777669488E1,2.104215860E0,4.918570518E-1,-1.453472137E0
1.778671149E1,3.143261909E0,1.007001400E0,-1.718105316E0
1.779666599E1,3.175625324E0,8.727903366E-1,-1.013107300E0
1.780671730E1,2.718314409E0,-6.564927101E-2,4.671764374E-2
1.781668680E1,1.271326542E0,-7.215540409E-1,4.421319962E-1
1.782672480E1,-3.265984058E-1,-3.975896835E-1,-8.330478668E-1
1.783671399E1,-8.117272854E-1,6.858155727E-1,-3.051079273E0
1.784666730E1,5.891406536E-2,1.423212290E0,-4.663154602E0
1.785667068E1,8.766436577E-1,1.572814703E0,-2.453649521E0
1.786668072E1,1.297921538E0,2.198998451E0,-2.109474659E0
1.787666457E1,3.591623306E-1,1.812861443E0,-1.668905735E0
1.788666503E1,-3.315687180E-1,1.647251129E0,-2.054597378E0
1.789674265E1,-5.918288231E-2,2.255243778E0,-3.332405090E0
1.790667499E1,-1.146939993E-1,2.806679249E0,-4.503105164E0
1.791671880E1,6.217969656E-1,2.759780407E0,-5.354512215E0
1.792673557E1,2.650039911E0,1.907954931E0,-5.493316650E0
1.793667249E1,2.991146088E0,2.085676193E-1,-3.938703060E0
1.794669438E1,1.046477318E0,-1.021949291E0,-2.152315140E0
1.795672780E1,-1.275825977E0,-1.269898891E0,-1.353769779E0
1.796666442E1,-2.076219082E0,-1.524010301E0,-1.144992828E0
1.797673699E1,-3.083395720E0,-1.896994591E0,-1.052300453E0
1.798672384E1,-3.042788267E0,-1.836864352E0,-2.382733345E0
1.799673261E1,-8.511878252E-1,-1.241541862E0,-4.201152802E0
1.800665849E1,2.063302517E0,-1.060448647E0,-4.279989719E0
1.801672192E1,3.239074707E0,-1.761557817E0,-3.186832905E0
1.802666499E1,3.238806009E0,-2.904257536E0,-2.149410248E0
1.803666338E1,2.891120911E0,-3.351328611E0,-1.167270660E0
1.804670018E1,1.751014709E0,-2.903147697E0,-3.922510147E-1
1.805665676E1,-1.463245153E-1,-2.430522203E0,-2.200899124E-1
1.806674545E1,-1.729188204E0,-1.935281277E0,-1.340670109E0
1.807673265E1,-2.617170095E0,-1.432998419E0,-3.215528488E0
1.808666615E1,-2.309019089E0,-1.631731510E0,-4.632360935E0
1.809669268E1,-2.716827393E-1,-2.796494246E0,-4.740471840E0
1.810672711E1,2.245957851E0,-3.681151628E0,-4.033453465E0
1.811666553E1,4.203732014E0,-3.655413866E0,-2.534240723E0
1.812672742E1,4.014085293E0,-2.766042948E0,-3.017444611E-1
1.813671411E1,3.453846216E0,-2.374363661E0,1.216415405E0
1.814673861E1,2.774412870E0,-2.330883265E0,1.874248505E0
1.815675192E1,1.399071932E0,-2.064311981E0,1.322397232E0
1.816666765E1,1.608996630E0,-2.016297579E0,1.563940048E-1
1.817673784E1,1.682695746E0,-2.697701693E0,-2.347135544E-1
1.818673534E1,2.774079084E0,-3.882437706E0,2.192032814E0
1.819668026E1,3.342485428E0,-3.407218933E0,5.436901093E0
1.820667022E1,3.355710983E0,-4.181593418E0,8.811695099E0
1.821672945E1,3.363144398E0,-4.518742561E0,1.107604504E1
1.822672857E1,2.482111692E0,-3.239814281E0,1.214101791E1
1.823671903E1,1.947262168E0,-2.650082111E0,1.223128319E1
1.824669253E1,1.683662295E0,-2.488953352E0,1.171167564E1
1.825671257E1,8.276239634E-1,-1.798039794E0,1.196382999E1
1.826673030E1,1.036427975E0,-1.201938272E0,1.304296494E1
1.827667607E1,9.144948721E-1,-1.386503339E0,1.288130283E1
1.828666949E1,-1.595830917E-1,-1.424628735E0,1.192473030E1
1.829676776E1,-1.342913747E0,-1.417270184E0,1.082603264E1
1.830673195E1,-2.584162712E0,-1.668165803E0,8.823675156E0
1.831667738E1,-3.157437325E0,-1.792447925E0,5.922714233E0
1.832666526E1,-2.183315277E0,-1.465392113E0,4.069014549E0
1.833670999E1,-1.028937578E0,-2.372692823E-1,3.195974350E0
1.834673718E1,-4.924058914E-2,4.514823556E-1,2.879717827E0
1.835671761E1,5.268080235E-1,6.693260670E-1,3.299901009E0
1.836666468E1,9.559438229E-1,8.741931915E-1,4.834264755E0
1.837673045E1,1.093963385E0,1.156876683E0,6.422786713E0
1.838667784E1,5.423159599E-1,1.421869040E0,7.152534485E0
1.839667230E1,2.626738548E-1,1.578263998E0,7.352943420E0
1.840667142E1,6.412866116E-1,1.697230339E0,7.428785324E0
1.841667414E1,7.769560814E-1,1.779563069E0,6.618072510E0
1.842667653E1,4.323310852E-1,1.699444652E0,5.235656738E0
1.843670253E1,4.493360519E-1,1.558289647E0,4.146706581E0
1.844666768E1,1.062432528E0,1.565872908E0,3.902125359E0
1.845666295E1,9.341688156E-1,1.502328753E0,3.430528641E0
1.846666711E1,6.400444508E-1,1.597828984E0,2.523714066E0
1.847667518E1,6.002321243E-1,1.585861802E0,1.480848312E0
1.848666676E1,8.846292496E-1,1.746308804E0,8.218212128E-1
1.849673461E1,1.066958189E0,1.988296270E0,1.282989502E0
1.850668549E1,1.488569736E0,2.023251295E0,3.302542686E0
1.851668511E1,1.257079363E0,1.734703898E0,3.194766045E0
1.852666992E1,2.809219360E-1,1.605236888E0,2.334879875E0
1.853666484E1,-6.435296535E-1,1.235327601E0,1.576168060E0
1.854668084E1,-1.120257974E0,7.590019703E-1,1.483994484E0
1.855672803E1,-1.245225906E0,6.557321548E-1,1.830449104E0
1.856666053E1,-1.734530210E0,6.558897495E-1,1.826542854E0
1.857673730E1,-2.328512430E0,3.503451347E-1,1.646365166E0
1.858667661E1,-2.367127419E0,2.927044630E-1,1.409639359E0
1.859667349E1,-2.156970024E0,6.436096430E-1,1.461504936E0
1.860667272E1,-2.077894688E0,9.870510101E-1,2.009791374E0
1.861666868E1,-2.013145924E0,9.169693589E-1,2.380449295E0
1.862673099E1,-1.939369798E0,6.759428382E-1,2.280291557E0
1.863672464E1,-1.393777847E0,5.206187963E-1,2.092937469E0
1.864667892E1,-5.566017628E-1,9.112895131E-1,2.155719757E0
1.865665972E1,-3.769499063E-1,1.263192654E0,2.046329498E0
1.866672061E1,-6.530567408E-1,1.309963822E0,2.036178589E0
1.867672215E1,-4.214808941E-1,1.314038277E0,1.968278885E0
1.868666776E1,-5.481076241E-2,1.366765141E0,1.443613052E0
1.869673076E1,-4.595644474E-1,1.265910387E0,1.016223907E0
1.870667734E1,-1.081599832E0,8.989729881E-1,8.684787750E-1
1.871666530E1,-1.376853943E0,5.598779917E-1,1.058288574E0
1.872666330E1,-1.114561439E0,4.277683496E-1,1.646358490E0
1.873671241E1,-3.445539474E-1,5.575397015E-1,1.998731613E0
1.874673745E1,1.615858316E0,1.660929203E0,1.298452377E0
1.875668349E1,4.231746197E-1,1.688169003E0,1.827997208E0
1.876667930E1,-2.855849266E-1,4.579116106E-1,2.497907639E0
1.877672407E1,3.197321892E-1,-6.923301220E-1,2.833345413E0
1.878667634E1,5.586698055E-1,-7.879765034E-1,2.697042465E0
1.879668611E1,-2.433164120E-1,-5.697336197E-1,3.203389168E0
1.880672564E1,-6.622320414E-1,-4.476680756E-1,4.329144478E0
1.881671472E1,-6.090992689E-1,-3.200390339E-1,5.323246002E0
1.882672176E1,-1.911170483E-1,-2.716119289E-1,5.808639526E0
1.883671849E1,1.465187788E0,-1.221251488E-1,6.347976685E0
1.884666803E1,1.980051041E0,3.338203430E-1,6.280171394E0
1.885673161E1,1.645608425E0,3.895413876E-1,5.462621689E0
1.886667149E1,1.096234083E0,2.239465714E-2,4.710931778E0
1.887686845E1,4.914963245E-1,-5.482871532E-1,4.715391159E0
1.888666388E1,-1.806852818E-1,-1.126151085E0,5.622298241E0
1.889666861E1,-6.598091125E-2,-1.682317972E0,6.775986671E0
1.890671268E1,1.861791611E-1,-1.763805628E0,7.534085274E0
1.891671807E1,2.546548843E-3,-1.859265566E0,7.335455894E0
1.892671718E1,4.491806030E-2,-1.907355309E0,6.454192162E0
1.893671691E1,6.392598152E-2,-1.301042318E0,5.327272415E0
1.894673126E1,3.596503735E-1,-4.050128460E-1,4.686945915E0
1.895666545E1,1.085354090E0,-1.295225620E-1,4.889808655E0
1.896673780E1,1.322255373E0,-4.801273346E-1,6.447638512E0
1.897672568E1,1.599899888E0,-6.861717701E-1,7.944038391E0
1.898674622E1,2.320704937E0,-8.485026360E-1,9.208122253E0
1.899666822E1,2.121656179E0,-1.047307014E0,9.172608376E0
1.900670968E1,2.041757584E0,-8.269128799E-1,7.295707703E0
1.901671349E1,1.731757164E0,-6.944963932E-1,5.594769478E0
1.902667188E1,2.062641382E0,-1.017567873E0,5.051098824E0
1.903667045E1,1.466970682E0,-1.274526000E0,5.894411087E0
1.904666407E1,1.636292934E-1,-2.241800547E0,6.142961502E0
1.905666391E1,-1.199083567E0,-3.164733887E0,5.264335632E0
1.906667041E1,-1.549358368E0,-3.761177063E0,3.825448036E0
1.907667288E1,-9.430058002E-1,-3.517306805E0,2.584153175E0
1.908665907E1,1.325344920E0,-3.497886419E0,1.546832085E0
1.909667922E1,2.006324768E0,-3.170698166E0,1.552681923E0
1.910667088E1,7.213656902E-1,-2.709222794E0,3.241658211E0
1.911666488E1,4.674773812E-1,-2.160502434E0,4.266078949E0
1.912666938E1,2.864675522E0,-2.492345572E0,4.981859207E0
1.913671118E1,3.010012150E0,-2.345671177E0,5.526291847E0
1.914673461E1,2.157778025E0,-2.164206743E0,5.717398643E0
1.915668118E1,3.404445171E0,-2.959761620E0,4.973670959E0
1.916668972E1,2.590197563E0,-2.987948895E0,3.248255730E0
1.917669207E1,1.317941546E0,-2.721204042E0,6.521654129E-1
1.918668765E1,7.326911688E-1,-2.788686275E0,-1.106905937E0
1.919673964E1,3.023914576E0,-2.900671244E0,-2.296958923E0
1.920673565E1,3.522723198E0,-2.082471371E0,-3.460685253E0
1.921666595E1,3.045262098E0,-2.630446672E0,-3.397698402E0
1.922676191E1,2.269266129E0,-3.760312080E0,-1.366565704E0
1.923667999E1,-6.698206663E-1,-3.268077850E0,2.508350372E0
1.924668611E1,-6.770685315E-1,-2.669527292E0,3.491593361E0
1.925666672E1,5.474161506E-1,-2.832597733E0,2.108502388E0
1.926672438E1,4.164486527E-1,-3.148968220E0,6.640214920E-1
1.927668057E1,-4.957048893E-1,-2.629121304E0,4.105091095E-2
1.928672203E1,-5.687152743E-1,-1.829659224E0,-6.545963287E-1
1.929667153E1,-1.041954398E0,-1.613858342E0,-1.625664711E0
1.930666845E1,-2.584512472E0,-2.289885283E0,-2.653621674E0
1.931667222E1,-3.030921936E0,-2.566273451E0,-3.812329292E0
1.932666795E1,-6.934098601E-1,-2.627989769E0,-3.925235748E0
1.933666622E1,1.495360017E0,-2.474583387E0,-3.225952625E0
1.934667449E1,2.481625795E0,-1.947616696E0,-1.898650646E0
1.935672211E1,3.685275793E0,-1.863447905E0,-4.823760986E-1
1.936666261E1,4.018350124E0,-1.824284315E0,7.214088440E-1
1.937671126E1,3.443777084E0,-9.099187851E-1,1.354593277E0
1.938667261E1,3.140147686E0,8.564573526E-2,-6.129074097E-2
1.939673914E1,2.921355963E0,6.563196182E-1,-2.121731281E0
1.940676757E1,2.491906643E0,8.130214214E-1,-4.136653423E0
1.941672403E1,2.582023144E-1,7.634880543E-1,-5.214271545E0
1.942667064E1,-2.173407555E0,6.745113730E-1,-6.222445011E0
1.943667607E1,-3.226540089E0,3.379096985E-1,-7.308182716E0
1.944666972E1,-2.949938774E0,-5.669127703E-1,-8.116402626E0
1.945666022E1,-2.358797073E0,-1.376905918E0,-8.192326546E0
1.946666488E1,-2.104007006E0,-1.562540531E0,-5.701916218E0
1.947666718E1,-1.457410932E0,-9.781422615E-1,-2.591780186E0
1.948673072E1,2.643359303E-1,1.345923901E0,-2.644541740E0
1.949666399E1,2.188534975E0,1.268975616E0,-4.334165573E0
1.950666472E1,3.556724548E0,1.722749472E-1,-5.796529293E0
1.951669384E1,3.004800797E0,-7.293043733E-1,-6.652735710E0
1.952672768E1,1.748442769E0,-9.580520988E-1,-6.736567497E0
1.953671468E1,2.561885417E-1,-1.435702562E0,-6.538895607E0
1.954675511E1,-9.060273170E-1,-2.292345524E0,-6.325729370E0
1.955669630E1,-1.151412964E0,-2.861970901E0,-5.734908104E0
1.956671618E1,-1.243304253E0,-2.713588715E0,-4.712723732E0
1.957665872E1,-1.479544878E0,-1.668089628E0,-3.810613155E0
1.958670903E1,-1.205851436E0,-5.672217607E-1,-4.052716732E0
1.959667884E1,-1.162093997E0,-1.109999418E-1,-5.517658710E0
1.960676988E1,-1.848529339E0,5.520617962E-2,-6.458125591E0
1.961670964E1,-1.758697271E0,7.772648335E-1,-6.860996246E0
1.962670084E1,-6.288859844E-1,8.434937000E-1,-6.899501801E0
1.963666703E1,-4.388660192E-3,3.659021854E-1,-6.488327026E0
1.964667338E1,3.251426220E-1,7.058024406E-2,-6.054491997E0
1.965666780E1,8.351000547E-1,-4.375691414E-1,-5.080818176E0
1.966666072E1,1.052964449E0,-9.032504559E-1,-3.628245831E0
1.967665841E1,4.952773750E-1,-1.036731482E0,-2.351274014E0
1.968667238E1,1.393985301E-1,-5.363190174E-1,-1.025112152E0
1.969671668E1,7.007402182E-2,7.712507248E-2,1.044198990E0
1.970666522E1,-4.742158055E-1,2.515615225E-1,4.949932098E-1
1.971666661E1,-7.391687036E-1,3.545655012E-1,-8.574171066E-1
1.972667349E1,-9.092467427E-1,3.604584932E-1,-1.822367668E0
1.973666061E1,-1.698581219E0,2.044613361E-1,-2.361036301E0
1.974668111E1,-2.619366646E0,4.635810852E-3,-2.926003456E0
1.975674445E1,-2.680239201E0,2.221305370E-1,-2.723900795E0
1.976673364E1,-2.398964643E0,5.786210299E-1,-2.258553505E0
1.977665611E1,-1.838050604E0,1.318776488E0,-2.528608322E0
1.978671588E1,-4.826102853E-1,1.622339725E0,-3.146326065E0
1.979673841E1,5.386317968E-1,1.049053907E0,-3.011748314E0
1.980672872E1,3.441646993E-1,6.348946095E-1,-2.873016834E0
1.981671880E1,-3.604438901E-1,1.667964458E-1,-2.187260151E0
1.982674514E1,-1.048945904E0,-1.901521683E-1,-1.555944443E0
1.983668438E1,-1.553548574E0,-1.175508499E-1,-1.747294903E0
1.984667949E1,-1.371399283E0,2.014400959E-1,-1.842088223E0
1.985665926E1,-6.475895047E-1,3.090231419E-1,-1.495953560E0
1.986671518E1,-4.594653845E-2,4.610581398E-1,-1.367851257E0
1.987671649E1,1.349791884E-1,8.023903370E-1,-1.694294930E0
1.988673349E1,1.865631938E-1,9.156963825E-1,-2.194598675E0
1.989671826E1,-4.856910706E-1,6.248397827E-1,-3.198695183E0
1.990671553E1,-8.255172968E-1,4.134747982E-1,-3.770776749E0
1.991674541E1,2.664271593E-1,5.085852146E-1,-3.143131256E0
1.992667968E1,1.148458004E0,8.525602818E-1,-2.250201225E0
1.993672353E1,1.300269604E0,1.045080423E0,-1.496886730E0
1.994674264E1,1.223517299E0,1.108355522E0,-1.215126991E0
1.995667076E1,4.991697967E-1,1.176799774E0,-1.556450367E0
1.996674141E1,-1.411352158E-1,1.269020557E0,-2.284908772E0
1.997669326E1,-6.274296641E-1,1.093600035E0,-2.987972736E0
1.998667872E1,-9.599441886E-1,8.190593719E-1,-3.066044807E0
1.999674884E1,-1.070285797E0,5.780529976E-1,-2.931449413E0
2.000672722E1,-5.834141970E-1,3.864724636E-1,-2.626986980E0
2.001666707E1,-2.324923873E-1,1.750366688E-1,-2.466679573E0
2.002666168E1,-5.198094249E-1,-4.818150997E-1,-2.306282997E0
2.003666884E1,-4.853847027E-1,-8.348702192E-1,-1.819570065E0
2.004667964E1,1.966923475E-1,-9.119663239E-1,-1.202528954E0
2.005671584E1,5.513834953E-1,-7.431825399E-1,-8.543338776E-1
2.006672030E1,7.315625548E-1,-4.465315342E-1,-9.785089493E-1
2.007666034E1,1.025997162E0,6.813955307E-2,-1.466248512E0
2.008673934E1,1.340501070E0,4.304032326E-1,-1.863651752E0
2.009672841E1,1.046781778E0,3.569529057E-1,-2.719776630E0
2.010665934E1,2.964713573E-1,-4.463291168E-2,-3.960934162E0
2.011674280E1,-4.698150158E-1,-6.821658611E-1,-4.274722099E0
2.012668768E1,-1.631653428E0,-1.474906325E0,-2.700516224E0
2.013672695E1,-2.307693005E0,-1.460394979E0,-2.698832989E0
2.014668995E1,-2.313677788E0,-1.483132482E0,-3.184226036E0
2.015666834E1,-1.726663947E0,-1.399059296E0,-3.445695400E0
2.016673768E1,-5.690497160E-1,-7.640254498E-1,-3.537091255E0
2.017674830E1,7.773087025E-1,-6.912608147E-1,-3.881260395E0
2.018667484E1,1.303062677E0,-1.329189658E0,-4.355786800E0
2.019668864E1,1.305083513E0,-1.842014074E0,-4.946189880E0
2.020667176E1,1.233389020E0,-1.830071568E0,-4.749673367E0
